linearaccelerometer_timestamp	linearaccelerometer_x_data	linearaccelerometer_y_data	linearaccelerometer_z_data
1176175622112695	0.095442	0.49195147	0.2011404
1176175630413477	0.16553557	0.5236883	0.029583931
1176175638714258	0.24077201	0.5178056	-0.08737755
1176175647015039	0.19198906	0.5232587	-0.31769848
1176175655315820	0.122289896	0.4869933	-0.42603588
1176175663616602	0.1123091	0.46010065	-0.40838146
1176175671917383	0.027262807	0.42850256	-0.509181
1176175680218164	-0.049396515	0.4375081	-0.3942623
1176175688518945	-0.052192867	0.42134762	-0.3827629
1176175696819727	0.037595868	0.3597083	0.38975334
1176175705120508	0.11905581	0.37255144	0.8283758
1176175713421289	0.11122978	0.3689518	0.81555843
1176175721722070	-0.12519062	0.42970085	0.56848526
1176175730022852	-0.13127774	0.42171526	0.56199074
1176175738323633	-0.22365999	0.39372206	0.1839447
1176175746624414	-0.20394713	0.36098433	-0.15937233
1176175754925195	-0.03715545	0.39273643	-0.11402416
1176175763225977	0.030882895	0.41100883	-0.1150341
1176175771526758	0.09677875	0.4354658	-0.18735218
1176175779827539	0.1633336	0.46274376	-0.22613907
1176175788128320	0.18249857	0.47726583	-0.13167858
1176175796429102	0.1033051	0.46433544	0.02175045
1176175804729883	0.08494961	0.38449144	0.0959034
1176175813030664	0.06901461	0.35867548	0.14727116
1176175821331445	0.07234126	0.36037636	0.27939796
1176175829632227	0.061817348	0.37553215	0.38742638
1176175837933008	0.0108549	0.39271116	0.34711266
1176175846233789	-0.09669942	0.34828854	0.114964485
1176175854534570	-0.09423423	0.34375668	0.113064766
1176175862835352	-0.17137653	0.3029313	-0.025093079
1176175871136133	-0.18625194	0.2777648	-0.28695583
1176175879436914	-0.08054316	0.2538209	-0.47274017
1176175887737695	0.08005428	0.2204628	-0.23618507
1176175896038477	0.07827932	0.21407509	-0.23090935
1176175904339258	0.011905074	0.1099	-0.17664814
1176175912640039	0.02999872	0.12006426	-0.21890354
1176175920940820	0.026907265	0.19317198	-0.21392155
1176175929241602	-0.0076220036	0.294353	-0.10752869
1176175937542383	-0.029505372	0.37392616	0.08846855
1176175945843164	-0.013144791	0.29308748	0.34557152
1176175954143945	0.08441234	0.2590289	0.77321815
1176175962444727	0.11719686	0.32335663	1.3890038
1176175970745508	0.04788047	0.44062805	1.9694967
1176175979046289	-0.007742822	0.54326105	2.0054455
1176175987347070	0.137505	0.50866747	0.88317776
1176175995647852	0.52170223	0.16071987	-1.540596
1176176003948633	0.20536566	0.19459724	-2.7936296
1176176012249414	0.0706206	0.27294588	-2.5270329
1176176020550195	0.09407145	0.3149295	-0.9484997
1176176028850977	0.084546745	0.32771158	1.1115084
1176176037151758	-0.37583828	0.17259455	2.4807453
1176176045452539	-0.372706	0.19395733	2.4435863
1176176053753320	-0.48224473	0.02854395	1.4110231
1176176062054102	-0.52599084	-0.037525654	0.40131474
1176176070354883	-0.49733126	-0.018781185	-0.46662426
1176176078655664	-0.4721108	-0.05395603	-0.44295216
1176176086956445	-0.3929115	0.025342941	-1.1094055
1176176095257227	-0.057742238	0.20100832	-1.7037926
1176176103558008	0.41787803	-0.2383399	-3.873476
1176176111858789	0.059190094	-0.06329203	-3.1086016
1176176120159570	-0.10409665	0.12937021	-1.0621057
1176176128460352	0.26151347	0.1353941	0.77352524
1176176136761133	0.23752648	0.17646027	0.7422905
1176176145061914	0.7486626	0.31142807	1.5766354
1176176153362695	0.4479772	0.42138672	1.63838
1176176161663477	0.31770658	0.39519644	1.433816
1176176169964258	0.21458668	0.33225918	1.3374977
1176176178265039	0.12604427	0.31626987	1.347558
1176176186565820	0.14088392	0.31166172	1.3361101
1176176194866602	0.18765742	0.47468805	0.5834179
1176176203167383	0.28143376	0.37838125	-0.42617416
1176176211468164	0.36185753	0.015547752	-1.3608227
1176176219768945	0.2959805	0.07457018	-1.9249
1176176228069727	0.30987006	0.054032326	-1.8992071
1176176236370508	0.1498928	0.49989843	-1.9664068
1176176244671289	0.23476541	0.59893656	-0.9553642
1176176252972070	0.27940232	0.28472948	0.14844131
1176176261272852	0.22893327	0.0069007874	1.1047688
1176176269573633	0.1546861	-0.15101433	1.5792236
1176176277874414	0.15106875	-0.103066444	1.5397053
1176176286175195	0.117616415	-0.1236248	1.4647627
1176176294475977	0.030099452	0.114352226	0.2672596
1176176302776758	-0.0016041398	0.21456814	-0.16581249
1176176311077539	0.0339033	0.24016237	-0.32767487
1176176319378320	0.07506925	0.20941114	-0.24243355
1176176327679102	0.082229555	0.2047534	-0.23957157
1176176335979883	0.102632105	0.14670944	-0.036057472
1176176344280664	0.2723108	0.049093723	0.036890984
1176176352581445	0.3991139	0.08838558	-0.048107147
1176176360882227	0.3761028	0.18601656	-0.04196167
1176176369183008	0.37538815	0.18340826	-0.041077614
1176176377483789	0.28407234	0.2636361	0.050476074
1176176385784570	0.20394105	0.28473806	0.20185661
1176176394085352	-0.03469467	0.22926426	0.5448961
1176176402386133	-0.17253917	0.24905872	0.52691555
1176176410686914	-0.18637276	0.24129105	0.44523144
1176176418987695	-0.17294794	0.23587132	0.44345188
1176176427288477	-0.10071105	0.22389603	0.34448147
1176176435589258	-0.008195758	0.2132721	0.22262764
1176176443890039	0.04781431	0.15651417	-0.08403015
1176176452190820	0.031303465	0.106460094	-0.18749332
1176176460491602	-0.016635895	0.08688116	-0.15402222
1176176468792383	-0.036535442	0.08155966	-0.06105137
1176176477093164	-0.031271756	0.07001543	-0.054541588
1176176485393945	0.0034531355	0.0709734	0.01930523
1176176493694727	0.082511485	0.13020706	-0.18554878
1176176501995508	0.093275964	0.1793499	-0.39541435
1176176510296289	0.099583864	0.16566372	-0.38596058
1176176518597070	0.117712796	0.1862793	-0.47863102
1176176526897852	0.18638456	0.17895985	-0.47455692
1176176535198633	0.29198086	0.16437912	-0.367445
1176176543499414	0.3417961	0.171947	-0.119054794
1176176551800195	-0.011010289	0.120110035	0.17650414
1176176560100977	-0.003785193	0.118038654	0.17577362
1176176568401758	-0.37240404	0.094064236	0.15356064
1176176576702539	-0.94159466	0.075983524	0.15191746
1176176585003320	-1.2255609	-0.030763626	0.25922585
1176176593304102	-0.47565502	-0.32567263	0.50427437
1176176601604883	-0.08834472	-0.34100246	0.6915722
1176176609905664	-0.09256667	-0.11322498	0.6997442
1176176618206445	-0.1803158	0.09480095	0.627532
1176176626507227	-0.20222998	0.20018291	0.50177574
1176176634808008	-0.14300695	0.18184996	0.33622265
1176176643108789	-0.12036502	0.09179115	0.15046787
1176176651409570	-0.023899823	0.0818429	-0.040632248
1176176659710352	0.15855291	0.13440466	-0.12078476
1176176668011133	0.33720312	0.1635971	-0.19007206
1176176676311914	0.46201694	0.14980936	-0.2322607
1176176684612695	0.51633346	0.09553671	-0.22692108
1176176692913477	0.51827466	0.020860672	-0.18229485
1176176701214258	0.41907084	-0.052589893	-0.047899246
1176176709515039	0.15902588	-0.09474993	0.10624409
1176176717815820	-0.20238605	-0.16856337	0.14790058
1176176726116602	-0.5817876	-0.27709627	0.1627779
1176176734417383	-0.9177546	-0.3700533	0.1937151
1176176742718164	-1.3053236	-0.28823805	-0.03508091
1176176751018945	-1.2071371	-0.30816698	-0.018855572
1176176759319727	-0.9769294	-0.2972679	-0.16196251
1176176767620508	-0.69829226	-0.28649187	-0.30062532
1176176775921289	-0.43544614	-0.30520725	-0.35094595
1176176784222070	-0.37639293	-0.33919573	-0.32214737
1176176792522852	-5.5119395E-4	-0.2556343	-0.5052047
1176176800823633	0.034042716	-0.20694017	-0.4504814
1176176809124414	0.35747147	-0.22374296	-0.46856403
1176176817425195	0.6252693	-0.36204052	-0.5233836
1176176825725977	0.66642714	-0.57785034	-0.54454565
1176176834026758	0.67509186	-0.61851025	-0.5084324
1176176842327539	0.46008083	-0.8195658	-0.43038988
1176176850628320	0.14708704	-0.5661144	0.24432325
1176176858929102	0.20293391	-0.1976285	0.7947326
1176176867229883	0.31442958	0.10648966	1.2461138
1176176875530664	0.77825475	-0.09551859	1.570529
1176176883831445	1.8436041	-0.82499933	2.0279932
1176176892132227	1.8838397	-0.8499751	2.0453987
1176176900433008	3.0841699	-0.2743497	2.5936508
1176176908733789	2.3722146	0.19308376	1.1848044
1176176917034570	1.915868	0.59360456	-0.2561412
1176176925335352	1.8524334	0.763103	-1.3852363
1176176933636133	2.084801	0.52066183	-2.070479
1176176941936914	2.1310227	0.4116249	-1.9580007
1176176950237695	2.6730928	-0.22483683	-2.8125925
1176176958538477	3.00589	0.0025539398	-3.625105
1176176966839258	2.5105324	0.441226	-2.3575468
1176176975140039	1.8287226	0.62210464	-1.2456298
1176176983440820	1.8732966	0.56113386	-1.170917
1176176991741602	1.8586558	0.41397142	-1.9451599
1176177000042383	0.8080195	-0.17615032	0.2142911
1176177008343164	-0.28458428	-1.503994	-0.48994112
1176177016643945	-0.5148282	-1.5148416	-0.99780655
1176177024944727	-0.17807162	-0.48990774	-0.8413873
1176177033245508	-0.122885585	-0.5050416	-0.80646515
1176177041546289	0.11416173	0.60518074	-0.08823395
1176177049847070	-2.5056643	-0.6928725	1.0269947
1176177058147852	-3.7674327	-1.2289515	1.6593204
1176177066448633	-2.7025094	-0.4981861	1.5596366
1176177074749414	-0.5886613	0.7674203	0.80368376
1176177083050195	-0.49627364	0.73700905	0.8593936
1176177091350977	0.15686464	3.1177177	-0.6391854
1176177099651758	-0.8835621	3.7210698	-0.6508813
1176177107952539	0.3323419	2.9870753	-0.5694938
1176177116253320	1.1664965	2.1328268	0.15632439
1176177124554102	1.1839495	2.0601454	0.24621868
1176177132854883	-0.88661575	1.3816109	1.7991428
1176177141155664	-1.599899	-0.48300743	1.5408711
1176177149456445	0.49760008	0.13596869	-1.8605423
1176177157757227	3.2997835	-0.105840206	-2.9932718
1176177166058008	4.8373404	-0.2692051	-3.0569096
1176177174358789	5.0704975	-0.3576355	-2.976481
1176177182659570	5.003916	-0.47192574	-2.7815247
1176177190960352	4.060284	-0.89773846	-2.5688086
1176177199261133	3.2413435	-0.9966717	-1.8125172
1176177207561914	2.6119113	-0.9210987	-1.4471107
1176177215862695	2.348837	-0.6969433	-1.0895302
1176177224163477	2.3497806	-0.50420475	-0.652338
1176177232464258	2.3952816	-0.5388336	-0.53734803
1176177240765039	1.9095814	-0.8290224	0.61018324
1176177249065820	1.4250562	-0.43328762	-0.8149793
1176177257366602	1.4685657	-0.46527195	-0.6958089
1176177265667383	1.2899127	-0.4290409	-0.84846425
1176177273968164	1.4257276	-0.5715027	-0.76907015
1176177282268945	1.3194816	-0.8506355	-1.1085978
1176177290569727	0.4990487	-1.2456818	-1.8264036
1176177298870508	0.11536789	-1.4764051	-1.200788
1176177307171289	0.057779074	-1.5135479	-1.0993288
1176177315472070	0.37039542	-1.5927076	-0.28404212
1176177323772852	0.90133667	-1.7066822	0.3970716
1176177332073633	1.5292832	-1.8071985	0.8545611
1176177340374414	2.044533	-1.80021	1.2107873
1176177348675195	1.9382228	-1.5840311	1.9350586
1176177356975977	1.5049464	-1.2500734	2.746274
1176177365276758	0.5606898	-0.42468452	2.4052444
1176177373577539	-0.58504736	0.6024189	1.1756508
1176177381878320	-1.6506022	1.3844528	-0.21018684
1176177390179102	-2.4699063	1.5872526	-1.0487252
1176177398479883	-3.0602038	1.4708652	-1.4996794
1176177406780664	-2.8529458	1.3865547	-1.6618773
1176177415081445	-2.1354637	1.2420311	-1.3562793
1176177423382227	-1.0822484	1.0937719	-0.83320665
1176177431683008	0.001054287	1.0588055	-0.3882705
1176177439983789	0.75618726	1.2104206	-0.24745667
1176177448284570	0.9079456	1.3448391	-0.42714953
1176177456585352	0.45688033	1.1226234	-0.46397513
1176177464886133	-0.30756137	0.70254517	-0.30893385
1176177473186914	-1.0368934	0.1255436	-0.17588234
1176177481487695	-1.6721479	-0.47654152	-0.28192025
1176177489788477	-2.348893	-0.8312435	-0.6656066
1176177498089258	-3.0719638	-0.34403896	-0.7134592
1176177506390039	-3.2601376	0.45397758	-0.19568557
1176177514690820	-3.0374587	1.2612524	0.23063129
1176177522991602	-2.3525321	1.5602388	0.50195634
1176177531292383	-1.5582657	1.0571709	0.0058868527
1176177539593164	-1.6119285	1.0504313	0.051237047
1176177547893945	-2.7537973	1.3948822	-2.4294596
1176177556194727	-1.4501624	1.1587915	-0.9345654
1176177564495508	-0.23376894	1.0355825	-0.2207593
1176177572796289	0.34192842	1.2530203	-0.071753174
1176177581097070	0.42445678	1.628499	-0.19978692
1176177589397852	0.24891412	1.6362572	-0.13591108
1176177597698633	-0.44587457	2.2397242	-0.77962625
1176177605999414	-1.189105	2.2350101	-0.8570097
1176177614300195	-1.6136564	2.2404232	-1.136045
1176177622600977	-1.6744298	2.2427464	-1.06195
1176177630901758	-0.7952744	0.7527456	-0.8536906
1176177639202539	-0.16472399	-0.35612583	-0.83533096
1176177647503320	0.5350565	-1.1119967	-1.1950618
1176177655804102	1.3196151	-1.7084017	-0.80788386
1176177664104883	1.4621518	-1.8877754	-0.60467637
1176177672405664	1.017278	-1.7239208	-0.5581036
1176177680706445	0.38763332	-1.3310118	-0.48870352
1176177689007227	0.043688655	-0.808836	-0.25739676
1176177697308008	-0.4075122	-0.21963787	0.28568733
1176177705608789	-0.1409359	-0.1792078	0.89568233
1176177713909570	0.5418128	-0.4015913	0.73100626
1176177722210352	1.0107652	-0.5772934	0.21586227
1176177730511133	0.9773687	-0.5489454	-0.1324234
1176177738811914	0.9722725	-0.54580116	-0.108526826
1176177747112695	0.013558388	-0.055027008	-0.24331954
1176177755413477	-0.40639174	0.09783554	-0.3848241
1176177763714258	-0.4750222	0.115885735	-0.52402806
1176177772015039	-0.4141053	0.107367516	-0.49153137
1176177780315820	-1.1402494	0.25081253	-0.34152508
1176177788603183	-1.0543491	0.23854065	-0.32583296
1176177796903964	-0.9381993	-0.04980755	0.014074802
1176177805204745	-0.8216522	-0.0651474	0.30379742
1176177813505526	-0.7568226	-0.074038506	0.28073043
1176177821806308	-0.69362426	-0.12416744	0.71644545
1176177830107089	-0.597893	0.23581791	1.2099823
1176177838407870	-0.58323514	0.2317152	1.1669022
1176177846708651	-0.38046062	0.55227757	1.7548457
1176177855009433	-0.018575788	0.64091206	1.5704813
1176177863310214	-0.044180393	0.64123726	1.5497695
1176177871610995	0.51121104	0.5806818	0.8035545
1176177879911776	0.48577	0.5821371	0.81178975
1176177888212558	0.62318766	0.45107937	0.46069196
1176177896513339	0.47131956	0.14398193	-0.3194783
1176177904814120	0.4024496	-0.053090096	-0.25825524
1176177913114901	0.15483785	-0.27386189	-0.21658218
1176177921415683	0.19848406	-0.27651024	-0.18462211
1176177929716464	-0.14660299	-0.41828442	-0.14723343
1176177938017245	-0.49276757	-0.41596317	0.03483802
1176177946318026	-1.3572575	-0.031027794	0.8119287
1176177954618808	-1.492494	0.12506866	0.82223964
1176177962919589	-1.4310921	0.12008667	0.82246846
1176177971220370	-1.2593288	0.05733204	0.64005196
1176177979521151	-0.8616582	-0.12904167	0.45336622
1176177987821933	-0.3479631	-0.3229971	0.30504876
1176177996122714	0.4562816	-0.643363	-0.21825212
1176178004423495	0.45593864	-0.64106464	-0.20986336
1176178012724276	0.69361556	-0.72673035	-0.35582632
1176178021025058	0.7914037	-0.71473694	-0.3385172
1176178029325839	0.70626146	-0.6215458	-0.16781706
1176178037626620	0.49434322	-0.4893818	0.07755637
1176178045927401	0.18808442	-0.35597134	0.36992943
1176178054228183	0.22427464	-0.3583641	0.3468706
1176178062528964	0.07260418	-0.33419895	0.39757103
1176178070829745	-0.1905914	-0.3366089	0.53302526
1176178079130526	-0.48625934	-0.35773945	0.68492794
1176178087431308	-0.70977056	-0.36779118	0.762535
1176178095732089	-0.7962351	-0.32691383	0.75132704
1176178104032870	-0.43217224	-0.22550392	0.5144081
1176178112333651	0.04662724	-0.15121078	0.2156137
1176178120634433	0.27933583	-0.0787487	0.045807898
1176178128935214	0.24083747	3.8051605E-4	0.0029704273
1176178137235995	0.037522167	0.0809536	0.050064325
1176178145536776	-0.15881935	0.14290047	0.19670323
1176178153837558	-0.46061385	0.21206188	0.55968547
1176178162138339	-0.8316464	0.2583723	0.7063667
1176178170439120	-0.95692766	0.1780634	0.7469936
1176178178739901	-0.72819316	-0.0046396255	0.7910572
1176178187040683	-0.2831425	-0.19090652	0.8683539
1176178195341464	0.06414171	-0.2972126	0.8431643
1176178203642245	0.25312686	-0.23862457	0.86219716
1176178211943026	0.38195872	-0.15254307	0.9552194
1176178220243808	0.413732	-0.12953377	1.0309211
1176178228544589	0.35188735	-0.18159008	1.0420656
1176178236845370	0.34591377	-0.18112278	1.0338279
1176178245146151	-0.1288439	0.5439911	2.273653
1176178253446933	-0.16137183	1.4660082	2.3028858
1176178261747714	-0.40302488	1.7482319	1.3859156
1176178270048495	-0.29637757	1.7294588	0.42617023
1176178278349276	-0.0048033427	1.4352341	-0.38793436
1176178286650058	0.04947862	0.8626871	-1.1436993
1176178294950839	-0.025760554	0.52493954	-1.307993
1176178303251620	-0.033522964	0.25232697	-0.51729643
1176178311552401	-0.11805439	-0.030238152	-0.24597007
1176178319853183	0.14718811	-0.4863882	-0.39424413
1176178328153964	0.5780587	-0.9617386	-0.7466285
1176178336454745	0.76493835	-1.1336317	-1.0420613
1176178344755526	0.73221433	-0.7631006	-1.1685739
1176178353056308	0.26714796	-0.3241644	0.13523734
1176178361357089	-0.011919111	0.076132774	-0.117536545
1176178369657870	0.103877336	0.29087734	-0.29005682
1176178377958651	0.07922684	0.29112816	-0.27361184
1176178386259433	0.6876295	0.055610657	0.39031738
1176178394560214	0.7302114	-0.33656788	0.30797392
1176178402860995	0.58316076	-0.6934576	0.41399342
1176178411161776	0.4038906	-0.9072609	0.2645964
1176178419462558	0.4557949	-1.0756931	0.06355196
1176178427763339	0.58385766	-1.0156212	-0.040202618
1176178436064120	0.61639285	-0.6142168	-0.016716301
1176178444364901	1.0604897	-0.48970413	0.058169425
1176178452665683	1.1898439	-0.587615	0.08648509
1176178460966464	0.8581496	-0.62835884	0.106692016
1176178469267245	0.4654715	-0.5388174	0.37733757
1176178477568026	0.498904	-0.53723335	0.37114912
1176178485868808	0.27566335	-0.2786541	1.6822685
1176178494169589	-0.20737147	-0.03533268	0.84871304
1176178502470370	-0.20482013	-0.17312527	-0.2089625
1176178510771151	0.23046052	-0.37817287	-0.94730806
1176178519071933	0.29030734	-0.37399006	-0.94175035
1176178527372714	0.76655394	-0.49024963	-1.2763734
1176178535673495	1.2471435	-0.20889854	-0.79426205
1176178543974276	1.0083263	0.17138577	-0.2886449
1176178552275058	0.3188694	0.5076637	0.042538106
1176178560575839	-0.198986	0.705945	0.53341657
1176178568876620	-0.111676216	0.7101574	0.5124356
1176178577177401	-0.45861077	0.74290943	0.9278025
1176178585478183	-0.43309522	0.29263687	1.2948996
1176178593778964	0.35667133	0.12968445	1.6188672
1176178602079745	0.8238783	-0.27717495	1.0532163
1176178610380526	1.2754757	-0.4220724	0.89461714
1176178618681308	1.361365	-0.40703487	0.8989681
1176178626982089	3.9169166	-1.0229149	4.6536264
1176178635282870	3.703576	-1.0700388	4.7118955
1176178643583651	1.3253387	-0.77850914	3.8316262
1176178651884433	-1.0754225	-0.1869669	2.775537
1176178660185214	-1.4815607	0.054559708	2.0945857
1176178668485995	-0.98346114	0.15230083	1.4310129
1176178676786776	-0.79973626	0.20592308	1.505042
1176178685087558	-0.58109355	0.33230782	0.7240659
1176178693388339	-3.1341546	0.41036797	-1.1866499
1176178701689120	-4.17019	0.107310295	-1.8495425
1176178709989901	-4.386711	-0.11002731	-2.4228742
1176178718290683	-4.2504797	-0.04827404	-2.3157701
1176178726591464	-3.657101	-0.1647501	-2.4597228
1176178734892245	-2.3864024	-0.20419788	-1.9573225
1176178743193026	0.6664436	-0.30905056	-0.23631644
1176178751493808	1.7580252	-0.33612347	0.5071075
1176178759794589	1.7679777	-0.32231903	0.54020333
1176178768095370	2.499639	-0.23856926	0.8399383
1176178776396151	3.2428622	-0.15309334	0.86548054
1176178784696933	3.2482505	-0.14192104	0.8885163
1176178792997714	2.7070444	-0.38452053	0.27112162
1176178801298495	2.0747511	-0.42996883	0.06313872
1176178809599276	2.1283588	-0.39300632	0.11222124
1176178817900058	1.48856	-0.27424717	0.011110067
1176178826200839	0.86552596	-0.1360817	0.008919239
1176178834501620	0.2620759	-0.04059887	0.04958129
1176178842802401	-0.32260656	0.08439541	0.0018134117
1176178851103183	-0.85161734	0.38520718	-0.21855521
1176178859403964	-1.1486387	0.3701172	0.3254459
1176178867704745	-0.99062395	0.3131132	0.78140926
1176178876005526	-0.09148979	-0.004047394	0.32030463
1176178884306308	1.6963229	-0.7605581	-0.45787024
1176178892607089	4.142906	-1.8056159	0.38489723
1176178900907870	5.2286253	-1.8750696	0.1707921
1176178909208651	4.035329	-1.3931408	1.1909058
1176178917509433	1.8246903	-0.78353596	1.5450852
1176178925810214	-0.3430071	-0.29990482	1.3544357
1176178934110995	-1.9868584	-0.03077507	0.9850447
1176178942411776	-3.4200711	0.12057781	0.49613595
1176178950712558	-2.383421	-0.47111845	0.45188165
1176178959013339	-2.2552786	-0.36405754	0.49268174
1176178967314120	-1.6530609	-0.22571659	0.694314
1176178975614901	-1.4983416	0.066646576	0.81715846
1176178983915683	-1.4461446	0.24564743	0.6805041
1176178992216464	-1.3761163	0.31061125	0.70342183
1176179000517245	0.05741167	-0.4929061	-0.59920716
1176179008818026	1.3349404	-0.6267452	-1.1045196
1176179017118808	1.5437574	-0.22438431	-1.5013568
1176179025419589	1.1596842	0.34909725	-1.2428043
1176179033720370	0.7712965	0.64333487	0.14138389
1176179042021151	0.2992468	0.38323784	2.4983366
1176179050321933	-0.26519108	0.06273508	3.6058805
1176179058622714	-0.66167164	-0.24549389	3.335517
1176179066923495	-1.0729713	-0.2718773	2.4959416
1176179075224276	-1.671493	-0.1582017	1.1054714
1176179083525058	-2.3820214	-0.1470356	-0.55357623
1176179091825839	-2.717248	-0.3376298	-1.4824989
1176179100126620	-1.5159798	-0.50222445	-1.8479226
1176179108427401	-0.14197063	-0.5188532	-2.4905286
1176179116728183	0.69782114	-0.1457138	-1.962961
1176179125028964	1.0254154	0.32847977	-0.6296456
1176179133329745	1.0361814	0.31475067	-0.680552
1176179141630526	1.4547443	1.093266	1.7024369
1176179149931308	2.1752172	0.9671202	1.9694955
1176179158232089	2.4760857	1.1598964	1.9234643
1176179166532870	2.4996123	1.0818663	1.3385229
1176179174833651	2.1734567	0.61473465	-0.14382648
1176179183134433	1.4847345	0.119010925	-2.110293
1176179191435214	0.7403588	0.35868692	-2.7089963
1176179199735995	-2.3122053	0.92002296	2.0882077
1176179208036776	-0.19738054	0.9805074	3.643282
1176179216337558	1.8170514	1.3567171	4.6571827
1176179224638339	2.8132381	1.3434258	4.400428
1176179232939120	2.781221	1.2702727	4.250224
1176179241239901	2.3365927	-0.115484715	-0.09695196
1176179249540683	1.4766593	0.3695097	-0.8092891
1176179257841464	1.023447	0.5328665	-0.8404541
1176179266142245	0.95632315	0.3598175	-0.55251193
1176179274443026	0.9055047	0.31106853	-0.5683042
1176179282743808	0.8650651	0.124583244	0.023144007
1176179291044589	0.049673557	0.6123457	1.4824407
1176179299345370	-0.2349925	0.8210678	1.5644602
1176179307646151	-0.58381367	0.92008686	1.810676
1176179315946933	-0.95295286	0.9569688	1.9054146
1176179324247714	-1.0197153	0.9107399	1.9463449
1176179332548495	-1.6461744	0.9397049	1.4495783
1176179340849276	-1.7220774	0.9244695	1.3493187
1176179349150058	-1.8795834	0.77292633	1.2639138
1176179357450839	-2.1637206	0.47678232	1.1023078
1176179365751620	-2.475716	0.26140022	0.89514136
1176179374052401	-2.8783731	0.28550053	0.7400099
1176179382353183	-3.386889	0.51788807	0.7531034
1176179390653964	-3.525097	0.50999737	1.0209842
1176179398954745	-3.5106153	0.4058838	1.2615323
1176179407255526	-3.5345535	0.28384018	1.3092576
1176179415556308	-3.5661674	0.13348007	1.2160211
1176179423857089	-3.5519428	0.022894382	1.0671369
1176179432157870	-3.5595088	0.0048565865	1.0339315
1176179440458651	-3.181746	-0.03623724	0.67312014
1176179448759433	-2.8603115	-0.30683088	0.5037085
1176179457060214	-2.7333603	-0.53282166	0.5860374
1176179465360995	-2.7375464	-0.6202698	0.5438639
1176179473661776	-2.7280116	-0.630177	0.4765042
1176179481962558	-2.805215	-0.60730505	0.20128703
1176179490263339	-2.959177	-0.44450378	-0.030979753
1176179498564120	-2.8224168	-0.3931465	0.17452395
1176179506864901	-2.7380023	-0.36916256	0.24138916
1176179515165683	-2.65491	-0.3601823	0.12591445
1176179523466464	-2.6337576	-0.3556018	0.08194947
1176179531767245	-2.1897545	-0.34427834	-0.22995985
1176179540068026	-2.1102448	-0.38648748	-0.30476058
1176179548368808	-2.0919628	-0.38253975	-0.35003328
1176179556669589	-1.8986363	-0.44333935	-0.55372477
1176179564970370	-1.5373497	-0.6372075	-0.52318025
1176179573271151	-1.3699603	-0.7672272	-0.3153888
1176179581571933	-1.3876677	-0.75336075	-0.22822106
1176179589872714	-1.3193741	-0.63118553	-0.5951065
1176179598173495	-1.2994881	-0.41508436	-0.99447495
1176179606474276	-1.2378745	-0.43780136	-0.9549975
1176179614775058	-1.1012654	-0.5363593	-0.92772424
1176179623075839	-0.8896079	-0.68806696	-0.94522005
1176179631376620	-0.65501165	-0.827528	-0.9797399
1176179639677401	-0.5108032	-0.8591285	-0.95413095
1176179647978183	-0.60041666	-0.80649185	-0.7136012
1176179656278964	-0.5117011	-0.78559923	-0.45358485
1176179664579745	-0.47879362	-0.75987387	-0.46105033
1176179672880526	-0.4887414	-0.7583537	-0.40009046
1176179681181308	-0.50082874	-0.8179698	-0.4273231
1176179689482089	-0.34668732	-1.105731	-0.64564306
1176179697782870	-0.31052446	-1.0740623	-0.6373081
1176179706083651	-0.39738655	-1.1632452	-0.34136784
1176179714384433	-0.35933495	-1.1302104	-0.34285456
1176179722685214	-0.3767376	-1.2127032	-0.40751463
1176179730985995	-0.41985655	-1.3225641	-0.5542954
1176179739286776	-0.70764685	-1.2188058	-0.6509035
1176179747587558	-0.6678605	-1.1841197	-0.6604447
1176179755888339	-0.8177109	-0.9386258	-0.5607193
1176179764189120	-0.8245239	-0.8036742	-0.49444574
1176179772489901	-0.74898386	-0.71157026	-0.40809453
1176179780790683	-0.658535	-0.6059332	-0.2220838
1176179789091464	-0.59039783	-0.51316166	0.09506494
1176179797392245	-0.6927552	-0.56160784	0.22433746
1176179805693026	-0.7033596	-0.62924004	0.08324003
1176179813993808	-0.7422633	-0.57603836	0.15762162
1176179822294589	-0.7371707	-0.44953585	0.41528606
1176179830595370	-0.7111068	-0.33777523	0.82233673
1176179838896151	-0.81222486	-0.35559225	1.3432746
1176179847196933	-0.7973981	-0.62762785	1.2239233
1176179855497714	-0.73888206	-0.7122512	1.012564
1176179863798495	-0.53232145	-0.5041113	1.7674935
1176179872099276	-0.10282469	-0.4032135	1.7463202
1176179880400058	0.35516977	-0.5744171	6.9636106E-4
1176179888700839	0.36352396	-0.6471176	-2.1003866
1176179897001620	0.25477266	-0.3938098	-2.0597477
1176179905302401	0.34003162	-0.01992321	-1.3963287
1176179913603183	0.61006975	0.28620481	-0.89065534
1176179921903964	0.87772274	0.47191	-0.5306361
1176179930204745	1.0409393	0.61010885	-0.20759326
1176179938505526	1.1700487	0.8715291	0.052899897
1176179946806308	1.4306064	0.50056696	0.00942868
1176179955107089	1.4907622	0.4448018	-0.22129554
1176179963407870	1.4019971	0.7496848	-0.105835736
1176179971708651	1.0555553	0.9559641	0.20947379
1176179980009433	0.6130123	0.8979707	0.41581848
1176179988310214	0.5840583	0.86362696	0.41346508
1176179996610995	0.5314269	0.8054471	0.3565034
1176180004911776	0.51207256	0.7086735	0.6754745
1176180013212558	0.8487892	1.0399575	1.5012412
1176180021513339	0.75105095	0.84142876	1.9322131
1176180029814120	0.6845145	0.7743721	1.9792273
1176180038114901	0.7669821	1.1074505	-1.8843969
1176180046415683	-0.6809001	1.1877928	0.69343436
1176180054716464	-1.3751493	1.411066	1.9561812
1176180063017245	-0.8406677	1.3332577	1.1089759
1176180071318026	-0.25394773	1.090949	-0.2605617
1176180079618808	-0.67408943	0.8705945	-0.52431846
1176180087919589	-1.5540762	0.5064783	0.021503448
1176180096220370	-1.5276213	0.31745815	-0.44753104
1176180104521151	-1.3771276	0.5382719	-0.21620208
1176180112821933	-1.1928024	0.8750529	0.21400261
1176180121122714	-1.2365813	1.0518298	0.6462132
1176180129423495	-1.6272845	0.9569769	0.89546156
1176180137724276	-2.0444713	0.78872013	0.5272496
1176180146025058	-1.8604331	0.90819645	-0.007886529
1176180154325839	-0.91227245	0.9624438	-0.5566814
1176180162626620	-0.11460543	1.0567522	-0.31236938
1176180170927401	0.25094318	1.3731999	0.38843632
1176180179228183	0.23257399	1.353353	0.36235464
1176180187528964	-0.36519384	1.5429621	1.9221509
1176180195829745	-0.015223026	1.1095634	1.6246617
1176180204130526	0.38697958	0.5754113	1.0365539
1176180212431308	0.69141865	0.30167723	0.56537807
1176180220732089	0.6287422	0.24927664	0.5572281
1176180229032870	0.74726295	0.027969837	0.4884544
1176180237333651	2.402327	-0.79904556	0.93224347
1176180245634433	3.6721935	-0.3734784	0.9585415
1176180253935214	1.4540029	-0.5377631	1.3676066
1176180262235995	-0.6783843	-1.0306697	1.1827903
1176180270536776	-1.1595049	-1.2116861	0.84518325
1176180278837558	-0.43777227	-0.75390196	1.0361747
1176180287138339	-0.97039413	-0.68024683	0.90351486
1176180295439120	-0.90568304	-0.84649515	0.669127
1176180303739901	-0.5635972	-0.98968554	0.3601044
1176180312040683	-0.6086178	-1.0179796	0.35149395
1176180320341464	-0.56088257	-1.0599575	-0.13733135
1176180328642245	-0.62523985	-1.142005	-0.5643856
1176180336943026	-0.41545153	-1.5997324	-0.29632574
1176180345243808	-0.45098877	-1.6193676	-0.31327936
1176180353544589	-0.6532998	-2.0235386	-0.093318686
1176180361845370	-0.45877838	-1.4101896	-0.28611413
1176180370146151	-0.48810387	-1.4256268	-0.2762952
1176180378446933	-0.458745	-0.6237812	-0.273909
1176180386747714	-0.68353987	0.16977882	-0.08980857
1176180395048495	-0.700459	-0.5863962	0.1116444
1176180403349276	-0.68427324	-0.41779995	-0.5802531
1176180411650058	-0.7453842	-0.059062004	0.32363862
1176180419950839	-0.5058317	-0.07211971	1.0778736
1176180428251620	-0.069170475	-0.4057598	1.0359701
1176180436552401	-0.12234068	-0.43285275	1.0848898
1176180444853183	0.0111608505	-0.8244591	0.07802284
1176180453153964	-0.4194193	0.016734123	-0.20363957
1176180461454745	-0.09117365	0.6833906	0.019967794
1176180469755526	0.271533	1.2428493	0.6980268
1176180478056308	0.21916056	1.2183628	0.76118225
1176180486357089	0.2859311	2.5293865	-0.3895396
1176180494657870	1.008668	2.3901196	-2.7441566
1176180502958651	0.35076857	2.4452477	-3.4460857
1176180511259433	-0.4322114	2.1390066	-3.2719162
1176180519560214	-1.0630422	1.1166296	-2.2232304
1176180527860995	-1.0980926	1.0990448	-2.1935637
1176180536161776	-4.3797193	-1.7228317	0.66181445
1176180544462558	-4.4630213	-2.63165	0.9591725
1176180552763339	-2.6565933	-2.8242664	0.98748183
1176180561064120	-2.9008548	-2.6372318	0.950755
1176180569364901	-2.841675	-2.4325657	0.9651791
1176180577665683	-1.8017809	-2.1335726	1.0823234
1176180585966464	-0.72035456	-1.4818468	1.3740641
1176180594267245	-0.39984822	-0.7962122	2.1846304
1176180602568026	0.98655415	-0.64511967	1.4215021
1176180610868808	6.376503	-0.30089664	-0.3041402
1176180619169589	10.130347	0.34438992	-2.9620981
1176180627470370	10.04802	1.1930037	-5.923542
1176180635771151	7.431831	1.9320259	-7.7894635
1176180644071933	4.101237	1.8614845	-5.8453794
1176180652372714	2.2299585	1.1573763	-2.2136757
1176180660673495	1.1320626	0.87395763	0.6882757
1176180668974276	0.6589346	0.9781294	2.4774594
1176180677275058	0.5946355	0.95359993	2.4142368
1176180685575839	0.55926335	1.3044596	3.145649
1176180693876620	0.5221038	1.4655685	2.4935985
1176180702177401	0.5588504	1.464818	1.8758765
1176180710478183	0.2942946	0.93770504	1.0009911
1176180718778964	0.28787005	0.9332361	0.9891709
1176180727079745	0.31191754	0.18676186	0.29681408
1176180735380526	1.0252215	-0.41317368	-0.48881948
1176180743681308	0.99531496	-0.73320484	-0.14901721
1176180751982089	0.13101017	-2.6912832	0.65925634
1176180760282870	-1.2768084	-4.085866	0.7957306
1176180768583651	-1.2539628	-4.0736523	0.7955147
1176180776884433	1.1076068	-2.8889513	-1.0497762
1176180785185214	1.1192911	-2.8785324	-1.0357108
1176180793485995	-0.11104131	-1.0016966	0.27433276
1176180801786776	-0.49205935	-0.4335165	-0.034095526
1176180810087558	-0.48359466	-0.43004227	-0.02658832
1176180818388339	-0.39772666	-0.32693672	-0.270427
1176180826689120	-0.009346843	-0.43652916	-0.34177935
1176180834989901	0.51712406	-0.5468521	-0.18654454
1176180843290683	0.5653267	-1.2928877	0.44898605
1176180851591464	-0.18930233	-1.7504864	0.27614033
1176180859892245	-0.52490926	-1.81178	-0.13760448
1176180868193026	-0.52303493	-1.8013201	-0.10181463
1176180876493808	-0.16735625	-1.4676428	-0.64541626
1176180884794589	0.5170828	-1.0793476	-1.0947199
1176180893095370	0.6221142	-1.3254366	-1.0869792
1176180901396151	0.37962306	-0.776494	-0.4676757
1176180909696933	0.36944973	-0.76781654	-0.42517805
1176180917997714	0.330001	-0.30232525	-0.16304708
1176180926298495	0.4961921	0.26546097	0.16546369
1176180934599276	0.67733586	1.1456642	0.7199309
1176180942900058	0.7791964	3.3019629	0.7668638
1176180951200839	0.7591531	3.3003817	0.80240536
1176180959501620	0.8612777	3.155323	-0.56962657
1176180967802401	0.5382302	2.5410833	-1.2656999
1176180976103183	-0.002695918	1.7809572	-1.0517178
1176180984403964	-0.8319161	0.99566555	-0.19587326
1176180992704745	-3.3973322	0.63611317	0.63415384
1176181001005526	-3.4258766	0.6500387	0.71084857
1176181009306308	-1.3415047	1.066287	-0.79407215
1176181017607089	0.72154474	1.1706238	-2.0402784
1176181025907870	0.5970408	1.1922207	-1.9025326
1176181034208651	-0.26879895	0.6023092	-0.8968775
1176181042509433	0.19173598	-1.1852655	-1.411041
1176181050810214	0.054513693	-1.1601152	-1.3078086
1176181059110995	1.5130005	-0.9458227	0.61462593
1176181067411776	1.3826727	-0.9268713	0.68038034
1176181075712558	1.151657	-0.65883255	0.7788024
1176181084013339	0.7253774	-0.64266586	0.16924047
1176181092314120	0.32367602	-0.5859976	-0.4086213
1176181100614901	0.0352607	-0.51728153	-0.8029511
1176181108915683	-0.14476816	-0.46920872	-1.0136502
1176181117216464	0.061879113	-0.64109993	-1.2526257
1176181125517245	0.4630967	-0.96900177	-1.2164359
1176181133818026	0.9165288	-1.2761021	-0.71770716
1176181142118808	1.4898095	-1.3667908	0.043623924
1176181150419589	1.3949432	-1.3478556	0.43016577
1176181158720370	0.9553836	-1.1277018	0.030005693
1176181167021151	0.3706655	-0.4515667	-0.30871868
1176181175321933	9.650588E-4	-0.16236019	-0.4484899
1176181183622714	-0.074840665	-0.4941721	-0.41765738
1176181191923495	-0.23995054	-0.39099884	-0.2018578
1176181200224276	-0.51323503	-0.25086212	-0.18199372
1176181208525058	-0.7677315	-0.44146156	-0.18892288
1176181216825839	-0.69585294	-0.82470036	-0.22602987
1176181225126620	-0.45101976	-1.1149807	-0.19417548
1176181233427401	-0.08593184	-1.1826677	-0.09541774
1176181241728183	0.6880777	-1.2423468	-0.12021828
1176181250028964	0.9596073	-1.87399	0.0384984
1176181258329745	1.0079347	-2.1116095	-0.24653506
1176181266630526	0.83237857	-2.039999	-0.33472657
1176181274931308	0.5429413	-1.7326221	-0.26345038
1176181283232089	0.52675843	-1.7404547	-0.30020928
1176181291532870	-0.29646838	-0.5704889	-0.25953293
1176181299833651	-0.8633697	-0.11389065	-0.4603367
1176181308134433	-0.8989233	-0.125844	-0.85623455
1176181316435214	-0.19814724	-0.551178	-1.2400508
1176181324735995	0.51823467	-1.2074509	-1.5441699
1176181333036776	0.6114896	-1.6883678	-1.7880793
1176181341337558	0.5961691	-1.690712	-1.8071322
1176181349638339	0.37625402	-1.3059931	-2.0726795
1176181357939120	0.30248517	-1.0119247	-2.1972647
1176181366239901	0.18501145	-0.70633507	-2.0600507
1176181374540683	0.0947659	-0.5785494	-1.9209054
1176181382841464	0.11209071	-0.5859289	-1.9384477
1176181391142245	0.14292032	-0.54127026	-2.1632416
1176181399443026	0.1948598	-0.6095133	-1.8868883
1176181407743808	0.37605554	-0.42352867	-1.6640489
1176181416044589	0.45271206	-0.17625332	-1.4478483
1176181424345370	0.46550673	-0.18475723	-1.4698517
1176181432646151	0.44614375	4.749298E-4	-1.3312016
1176181440946933	0.47056907	0.21504688	-1.2833211
1176181449247714	0.4476682	0.3973732	-1.3902557
1176181457548495	0.55525416	0.49303246	-1.6681101
1176181465849276	0.8180895	0.3841343	-1.9033334
1176181474150058	0.8345248	0.3736248	-1.928143
1176181482450839	1.1164284	0.3341179	-1.9288874
1176181490751620	-1.0599535	4.1451216	-0.80463576
1176181499052401	-2.492189	5.9720936	0.9300871
1176181507353183	-2.1379812	5.714551	2.6405594
1176181515653964	-0.049955368	4.6716413	3.5549972
1176181523954745	-0.048948705	4.6464014	3.4862366
1176181532255526	2.1310189	1.2597685	3.2366076
1176181540556308	3.492825	0.4176445	2.1206582
1176181548857089	3.9494915	-0.44578552	0.46430802
1176181557157870	4.5605197	-1.4100075	-0.86251926
1176181565458651	4.306063	-2.1870155	-1.5769763
1176181573759433	3.41721	-2.5267	-1.6993966
1176181582060214	3.385446	-2.51256	-1.6697917
1176181590360995	2.2026935	-2.134181	-0.35796666
1176181598661776	2.1699345	-1.8708448	0.17684531
1176181606962558	1.8850906	-1.6242046	0.767082
1176181615263339	1.4687598	-1.2855949	1.4265137
1176181623564120	1.463092	-1.290638	1.3881795
1176181631864901	0.77838314	-0.84545803	2.0644097
1176181640165683	-0.64533377	0.2896471	2.551974
1176181648466464	-1.4938853	0.3788185	2.841858
1176181656767245	-1.5142386	0.33436203	2.928031
1176181665068026	-1.5456444	0.32850933	2.8727045
1176181673368808	-1.4870167	0.11334133	2.6610827
1176181681669589	-1.280341	-0.45772457	2.0921037
1176181689970370	-0.9191394	-0.78241444	1.3148509
1176181698271151	-0.5701629	-1.0515203	0.7260634
1176181706571933	-0.54568505	-1.0600815	0.6806232
1176181714872714	0.4983511	-1.2247524	0.7923672
1176181723173495	0.7887651	-1.0594273	0.82359314
1176181731474276	0.6066129	0.023230553	0.8629737
1176181739775058	0.361475	0.14364433	0.72864354
1176181748075839	1.0111022	0.22403812	0.8817843
1176181756376620	1.0687864	0.20673084	0.7922865
1176181764677401	0.5959584	0.65386105	0.6251737
1176181772978183	0.4621263	0.4446535	0.3095436
1176181781278964	0.51208234	0.43306923	0.24372411
1176181789579745	-0.4439388	0.280715	-0.29875553
1176181797880526	-0.7777057	0.4805689	0.029976606
1176181806181308	-1.0629983	0.5486164	0.40586525
1176181814482089	-1.3293799	0.50645924	0.6171787
1176181822782870	-1.289726	0.49820423	0.5348584
1176181831083651	-1.3137388	0.31801987	0.6317425
1176181839384433	-0.9228014	-0.019732475	0.81654036
1176181847685214	-1.2815824	-0.23684502	0.5904659
1176181855985995	-1.5620103	-0.28200054	0.28464934
1176181864286776	-1.4540701	-0.45775795	0.3105665
1176181872587558	-1.2134472	-0.6174946	0.38642657
1176181880888339	-1.0885643	-0.70277977	0.3584084
1176181889189120	-1.1166846	-0.82608986	0.34274268
1176181897489901	-1.0938119	-1.0380678	0.3170764
1176181905790683	-1.0280815	-1.0888195	0.19533104
1176181914091464	-1.1651815	-1.0535917	0.10974729
1176181922392245	-1.5343138	-0.9653597	0.018077552
1176181930693026	-1.968106	-0.8421316	-0.103227854
1176181938993808	-2.1602142	-0.6923704	-0.2074331
1176181947294589	-1.8097161	-0.48917675	-0.082547784
1176181955595370	-1.188092	-0.53966427	-0.11862391
1176181963896151	-0.47031894	-0.6186724	-0.4578842
1176181972196933	-0.08506706	-0.6321249	-0.81788063
1176181980497714	-0.23824582	-0.5748253	-1.0364193
1176181988798495	-0.82297516	-0.5308876	-1.1464707
1176181997099276	-1.1600654	-0.7027006	-1.1382753
1176182005400058	-1.1158907	-0.8769226	-0.98440075
1176182013700839	-0.9349029	-0.9229002	-0.7555388
1176182022001620	-0.7393224	-0.85305405	-0.5117388
1176182030302401	-0.63193476	-0.6693487	-0.32231188
1176182038603183	-0.6477314	-0.6598072	-0.37396753
1176182046903964	-0.8350728	0.24229527	-0.39270794
1176182055204745	-0.76311094	0.7082119	-0.4782995
1176182063505526	-0.5945994	1.0951948	-0.5412893
1176182071806308	-0.427673	1.3587217	-0.627637
1176182080107089	-0.36557645	1.4787426	-0.69471073
1176182088407870	-0.48849797	1.4850197	-0.5984
1176182096708651	-0.8334396	1.4973478	-0.22607756
1176182105009433	-1.1895851	1.5321293	0.076556206
1176182113310214	-1.586369	1.5701609	0.20032108
1176182121610995	-1.9549406	1.6083374	0.12784648
1176182129911776	-2.2061882	1.6730394	-0.14754176
1176182138212558	-2.2260325	1.6845903	-0.20705009
1176182146513339	-1.8592124	1.932272	-1.4305487
1176182154814120	-1.3364898	1.9816055	-1.8851912
1176182163114901	-1.0178475	2.00383	-2.0141919
1176182171415683	-0.85054046	2.0451279	-1.804883
1176182179716464	-0.85000515	2.0445042	-1.816092
1176182188017245	-0.7223692	2.1567373	-1.3345699
1176182196318026	-0.8204146	3.060216	-0.32416892
1176182204618808	-1.245257	3.6619854	-0.5606785
1176182212919589	-1.7724705	3.8711958	-1.2335923
1176182221220370	-2.239143	3.6326103	-1.9228041
1176182229521151	-2.2499146	3.616455	-1.8757768
1176182237821933	-2.555765	2.420967	-1.6341567
1176182246122714	-2.5417309	2.0102434	-1.2283092
1176182254423495	-2.417605	1.9787407	-1.424377
1176182262724276	-2.554225	2.038249	-1.6087123
1176182271025058	-2.9358273	1.9711103	-1.5278233
1176182279325839	-2.911334	1.9496431	-1.4388758
1176182287626620	-3.2325482	1.2505846	-1.2224756
1176182295927401	-2.281642	0.8320303	-1.2723727
1176182304228183	-1.2734871	0.29372883	-1.2435815
1176182312528964	-0.5331364	-0.083664894	-1.0680754
1176182320829745	0.060228765	-0.15172482	-0.8369012
1176182329130526	0.68899184	0.029008865	-0.6566804
1176182337431308	1.266755	0.18366718	-0.5386026
1176182345732089	1.6493636	0.3600645	-0.20551455
1176182354032870	1.843992	0.52238274	0.35592023
1176182362333651	1.8823102	0.6944485	0.87909794
1176182370634433	1.9289125	0.80434036	1.0720953
1176182378935214	1.9639388	0.806983	1.3041677
1176182387235995	2.1233091	0.8509226	1.0481107
1176182395536776	1.5683118	1.4463549	-0.3328653
1176182403837558	0.67079014	1.6906567	-0.52580273
1176182412138339	0.16366199	1.7243443	-0.16962576
1176182420439120	0.18512407	1.7449837	0.010190725
1176182428739901	0.07136828	1.6589794	0.5849402
1176182437040683	0.40548468	1.5430565	0.17091393
1176182445341464	1.2153246	1.7488861	-0.94856274
1176182453642245	1.8213353	1.9048119	-1.6061181
1176182461943026	1.8616683	1.9291677	-1.4690914
1176182470243808	2.0252953	1.7312975	-0.4821267
1176182478544589	1.4406619	0.5060797	3.4743783
1176182486845370	1.3995159	-0.09067249	4.3518524
1176182495146151	1.329416	-0.6515322	4.2755594
1176182503446933	1.1161132	-1.1609907	4.3972235
1176182511747714	1.1833358	-1.1252432	4.4945617
1176182520048495	0.35496068	-1.943841	4.0177774
1176182528349276	0.42139328	-1.8962908	4.136781
1176182536650058	0.13053662	-2.779686	2.21492
1176182544950839	-0.17140913	-3.1211824	1.7018046
1176182553251620	-0.52528155	-3.470687	1.7281396
1176182561552401	-0.7060318	-3.7161922	1.9372182
1176182569853183	-0.6764395	-3.6475039	2.079033
1176182578153964	-0.6354301	-3.8299637	2.2275453
1176182586454745	-0.21837443	-4.6059027	1.6781557
1176182594755526	-0.2093575	-4.5435915	1.7890375
1176182603056308	0.053031087	-4.9312277	1.4398737
1176182611357089	0.42172712	-5.141549	1.1720057
1176182619657870	0.8591035	-5.23067	1.0375242
1176182627958651	1.2932789	-5.2579947	1.1222482
1176182636259433	1.8086122	-5.3525963	1.715487
1176182644560214	1.6673717	-5.401083	1.9058919
1176182652860995	1.6508863	-5.38875	1.9063683
1176182661161776	1.6075773	-5.512393	1.8391829
1176182669462558	1.5726856	-5.69765	1.6530099
1176182677763339	1.4785016	-5.917238	1.3455243
1176182686064120	1.3110594	-6.105242	0.86618567
1176182694364901	1.0484889	-6.1121826	0.33345222
1176182702665683	0.86812913	-5.849124	-0.13368702
1176182710966464	0.7352218	-5.42416	-0.5698643
1176182719267245	0.6686095	-4.663863	-1.060087
1176182727568026	0.6432942	-3.3570566	-1.4760408
1176182735868808	0.503554	-1.2765617	-1.5059259
1176182744169589	-0.26708704	1.8707514	-0.89337254
1176182752470370	-1.2771412	6.5300417	-0.34298325
1176182760771151	-1.8688383	12.067329	-0.3919294
1176182769071933	-1.9686077	16.97436	-0.82071996
1176182777372714	-1.9015383	19.093388	-1.8348434
1176182785673495	-2.138135	16.307968	-3.7454019
1176182793974276	-2.1059537	9.161572	-5.324442
1176182802275058	-1.0082563	3.694251	-7.009885
1176182810575839	-0.1957885	0.10974693	-7.6768456
1176182818876620	0.13361794	-2.1836739	-7.5831013
1176182827177401	0.0513466	-3.7554293	-6.866593
1176182835478183	-0.16098565	-4.885085	-5.40032
1176182843778964	0.07332778	-5.351799	-2.9793713
1176182852079745	0.87341845	-4.6272326	-0.2927425
1176182860380526	1.8334066	-2.7964659	1.3782506
1176182868681308	2.6858268	-0.19318295	1.7808542
1176182876982089	2.6721	-0.1882391	1.7895854
1176182885282870	3.3688185	5.240981	2.190408
1176182893583651	3.5941129	6.959922	4.5213547
1176182901884433	3.7358005	7.5720434	7.2175875
1176182910185214	4.815088	6.6146393	9.72761
1176182918485995	6.5596337	4.422682	10.065688
1176182926786776	6.5083694	4.401165	10.017586
1176182935087558	7.850034	1.9990816	7.5239506
1176182943388339	4.605961	0.4117279	0.016679287
1176182951689120	1.4842246	-1.0549631	-1.4164441
1176182959989901	-1.0917047	-2.494524	-0.74481845
1176182968290683	-2.9449983	-3.5525656	0.43040514
1176182976591464	-3.8186243	-4.142496	0.9386153
1176182984892245	-3.7276309	-4.1442013	0.8955028
1176182993193026	-2.5404482	-4.3958006	0.44682193
1176183001493808	-1.3815982	-4.3839436	1.1717634
1176183009794589	-0.17045808	-4.251236	2.8640542
1176183018095370	0.5836745	-3.4108229	5.0980525
1176183026396151	0.76191026	-1.9478912	7.180529
1176183034696933	0.696862	-2.0015373	6.9974895
1176183042997714	0.4157442	-0.40801716	8.393637
1176183051298495	-0.3272962	0.014486313	8.1951275
1176183059599276	-0.865834	0.683136	7.9059405
1176183067900058	-1.1237662	1.6230125	7.454006
1176183076200839	-1.1629636	1.5775776	7.200055
1176183084501620	-1.044635	2.6408215	6.540735
1176183092802401	0.15298775	3.504136	3.4541984
1176183101103183	-0.3783626	3.332654	-0.63666236
1176183109403964	-1.0903046	2.7242832	-5.896891
1176183117704745	-0.765436	1.6457577	-8.677874
1176183126005526	-0.8217188	1.6422577	-8.657588
1176183134306308	0.76889193	0.29453087	-7.0067973
1176183142607089	1.368603	-1.5978374	-0.07121992
1176183150907870	0.63970923	-2.2264452	2.3253586
1176183159208651	0.11964291	-2.5595798	3.4904537
1176183167509433	-0.22784007	-2.6395082	3.7628334
1176183175810214	-0.21706066	-2.6398716	3.5853736
1176183184110995	-0.47403395	-2.6014967	3.3540707
1176183192411776	-0.23129788	-2.5355387	1.9824327
1176183200712558	0.19812527	-2.1612043	1.2719113
1176183209013339	0.43958583	-1.600483	0.8375434
1176183217314120	0.40514284	-1.5954351	0.7845863
1176183225614901	0.32520032	-1.000555	0.6764141
1176183233915683	-0.013121426	-0.55103683	0.8070185
1176183242216464	-0.5993633	-0.28988552	0.61024886
1176183250517245	-0.90939623	-0.49819756	0.06256983
1176183258818026	-1.3518544	-0.7406149	-0.48854226
1176183267118808	-1.8918135	-0.9674797	-0.9611036
1176183275419589	-1.9190387	-0.9605484	-1.0210574
1176183283720370	-2.4495769	-1.1397247	-1.319706
1176183292021151	-2.655992	-1.0770178	-0.74356973
1176183300321933	-2.0282576	-1.0795479	-0.49691862
1176183308622714	-1.3381585	-1.0982847	-0.38757652
1176183316923495	-0.80177283	-0.99861336	-0.42772698
1176183325224276	-0.8446547	-0.98066044	-0.5399622
1176183333525058	-0.30050784	-0.08379078	-0.5339533
1176183341825839	-0.2874701	0.61910915	-0.43832934
1176183350126620	-0.3077917	1.367487	-0.22422874
1176183358427401	-0.36144036	1.3865833	-0.32968986
1176183366728183	-0.4732707	2.1441755	0.023952127
1176183375028964	-0.75440454	2.700159	0.4205314
1176183383329745	-1.8259847	2.5954666	0.55442214
1176183391630526	-1.8710698	2.6082077	0.4893763
1176183399931308	-2.7208562	1.8984947	-0.16833687
1176183408232089	-2.7663445	1.9043941	-0.18717813
1176183416532870	-2.9608104	1.8030024	-0.5849707
1176183424833651	-3.2896452	1.8716755	-1.3241643
1176183433134433	-3.9170856	1.9842453	-2.6346405
1176183441435214	-4.656876	2.0777721	-4.268022
1176183449735995	-4.7449	1.8784304	-4.4454474
1176183458036776	-4.1304836	1.4788914	-3.3523006
1176183466337558	-3.2960367	1.2613878	-1.8110783
1176183474638339	-2.50147	1.5547304	-0.6559626
1176183482939120	-1.8656999	2.470746	-0.5495622
1176183491239901	-1.5251062	3.4348478	-1.6733458
1176183499540683	-2.0383852	3.8754168	-2.5834394
1176183507841464	-2.5749083	3.8441038	-2.1212633
1176183516142245	-2.7578807	3.4703884	-1.0037781
1176183524443026	-2.4702797	2.9295998	-0.0131082535
1176183532743808	-1.8485568	2.4946365	0.27524972
1176183541044589	-0.6512026	2.9540129	-0.07483888
1176183549345370	-0.61826444	2.9239101	0.09139609
1176183557646151	-0.1431222	3.356637	0.17136842
1176183565946933	-0.002077043	3.590229	0.0844906
1176183574247714	0.017433882	3.7090101	-0.12625182
1176183582548495	0.28790975	3.8931322	-0.21201056
1176183590849276	0.95799655	3.7646627	-0.037584215
1176183599150058	1.091558	3.5852718	0.7478808
1176183607450839	1.0307792	3.413042	1.7016014
1176183615751620	0.8725389	3.1907701	2.434749
1176183624052401	0.889073	2.9550285	2.7193003
1176183632353183	0.9660479	2.968153	2.926292
1176183640653964	2.2848148	2.5565586	1.2681265
1176183648954745	3.65011	2.447628	-0.23227692
1176183657255526	5.953533	2.2508488	-1.4397368
1176183665556308	8.268131	1.8375406	-1.442476
1176183673857089	8.793593	1.4718809	-0.3580264
1176183682157870	6.090391	1.4690504	0.8762152
1176183690458651	2.4665616	1.0311499	1.3757474
1176183698759433	0.9997731	0.6489029	-0.47785354
1176183707060214	-0.15278205	0.5001421	-0.10027313
1176183715360995	-0.080953	0.5402384	0.05340171
1176183723661776	-1.685701	0.11206341	4.809844
1176183731962558	-2.0157547	-0.6191273	6.8074737
1176183740263339	-2.269891	-1.1934586	7.64036
1176183748564120	-1.8274193	-1.8223963	7.5596824
1176183756864901	-1.2772639	-2.4539213	6.890353
1176183765165683	-0.7966784	-3.0242949	6.27523
1176183773466464	-0.7945776	-2.9558868	6.423689
1176183781767245	-0.2982455	-3.3141766	5.8681126
1176183790068026	0.79492265	-3.7116575	3.6597493
1176183798368808	1.1000197	-4.130992	3.1369348
1176183806669589	1.612382	-4.727008	3.4179091
1176183814970370	1.5679469	-4.6375875	3.5713258
1176183823271151	2.4952006	-6.032485	3.7888207
1176183831571933	2.4512744	-5.945794	3.917426
1176183839872714	2.4277818	-6.539731	1.7976422
1176183848173495	1.8687549	-6.529889	0.8118839
1176183856474276	1.8445295	-6.4626913	0.8992753
1176183864775058	1.1411461	-6.386554	0.25140476
1176183873075839	0.52121127	-6.17071	0.7406435
1176183881376620	0.5208312	-6.1475925	0.7554369
1176183889677401	0.68062466	-6.347528	1.6843944
1176183897978183	0.5679066	-6.610308	1.5770411
1176183906278964	0.57433563	-6.638312	1.5061793
1176183914579745	0.45255715	-6.794524	1.1574001
1176183922880526	0.53096	-6.4079056	0.19148159
1176183931181308	0.54556847	-6.467744	0.06279278
1176183939482089	0.55104816	-4.8521166	-0.9034476
1176183947782870	-0.19515687	-3.2118444	-0.8844991
1176183956083651	-0.17377432	-3.2992353	-1.0715556
1176183964384433	-2.416092	4.795249	0.7655823
1176183972685214	-3.2289832	11.9723015	1.1702006
1176183980985995	-3.200513	11.85664	0.94417286
1176183989286776	-3.4904354	25.043633	-1.2605202
1176183997587558	-3.710786	21.7504	-3.4356437
1176184005888339	-3.1944184	13.570149	-6.1995406
1176184014189120	-3.1929045	13.530508	-6.2219324
1176184022489901	-1.5577123	4.9053154	-9.824917
1176184030790683	0.48485202	-1.2556858	-12.831753
1176184039091464	1.0445541	-6.498955	-8.247491
1176184047392245	0.4742157	-7.033411	-4.482977
1176184055693026	0.47131693	-6.976428	-4.366325
1176184063993808	0.6022905	-6.71813	-1.0930576
1176184072294589	1.5364144	-5.635339	1.2647331
1176184080595370	2.6994033	-3.6630936	2.3595138
1176184088896151	2.5008276	2.649331	1.3904998
1176184097196933	2.4821966	2.6452503	1.3912294
1176184105497714	2.3225596	5.7493477	2.064894
1176184113798495	2.346528	7.7383566	3.851592
1176184122099276	2.7599719	8.589716	6.5987067
1176184130400058	3.9286427	8.111271	9.447253
1176184138700839	5.057261	2.9503727	7.052517
1176184147001620	4.9941688	2.9387312	7.020522
1176184155302401	2.3349113	1.7513561	3.9995522
1176184163603183	0.060374796	0.75650597	1.1909425
1176184171903964	-1.1521786	-0.7492151	-0.4113028
1176184180204745	-1.36678	-2.7746735	-0.024119616
1176184188505526	-0.7724959	-4.2767677	1.5198014
1176184196806308	-0.66338617	-5.0230217	0.5379126
1176184205107089	-0.9319129	-5.33447	-1.3320167
1176184213407870	-1.1463915	-5.359852	-2.3482537
1176184221708651	-0.93114436	-5.3638515	-1.8638649
1176184230009433	-0.14501801	-5.387949	0.13480568
1176184238310214	0.8620162	-4.8712263	3.480352
1176184246610995	0.96575737	-2.993165	6.5765038
1176184254911776	0.7833497	-1.1035223	8.345066
1176184263212558	0.6273405	0.19399357	9.238184
1176184271513339	0.54786086	0.778182	9.366007
1176184279814120	0.43989712	1.0256357	8.959387
1176184288114901	0.24025595	1.6128845	8.844068
1176184296415683	-0.0951435	2.9337158	8.832095
1176184304716464	-0.06784253	4.143525	7.708098
1176184313017245	0.07829836	4.4948244	5.605429
1176184321318026	-0.075960994	3.982377	3.0978305
1176184329618808	-0.12726307	3.9691315	3.022562
1176184337919589	-1.9014297	2.0850077	-2.1025634
1176184346220370	-2.5227313	0.9547615	-6.8665886
1176184354521151	-1.4575384	-0.0951643	-7.8729324
1176184362821933	-0.19343567	-0.98335934	-5.983581
1176184371122714	0.45734495	-1.6498909	-2.6831748
1176184379423495	0.41728282	-2.0883856	0.58809847
1176184387724276	-0.016798228	-2.440423	2.966825
1176184396025058	-0.4958391	-2.6424866	4.062108
1176184404325839	-0.7604128	-2.6272612	4.4265237
1176184412626620	-0.8467593	-2.4922152	4.2008476
1176184420927401	-0.6531919	-2.3564663	3.52134
1176184429228183	-0.09652129	-2.2856274	2.5903492
1176184437528964	0.48911282	-2.0992985	1.7139045
1176184445829745	0.39905307	-1.7337179	0.93559164
1176184454130526	0.15248722	-1.2903252	0.5340689
1176184462431308	-0.2134293	-0.9179163	0.42466927
1176184470732089	-0.27455994	-0.9097214	0.3863001
1176184479032870	-0.77114326	-0.7393017	-0.09695715
1176184487333651	-0.9426383	-0.9501591	-0.9020543
1176184495634433	-1.582032	-1.0921822	-1.66937
1176184503935214	-2.2944918	-1.0858955	-2.3289695
1176184512235995	-2.8258834	-0.98097706	-2.6646638
1176184520536776	-2.9039474	-0.86220455	-2.5233104
1176184528837558	-2.409558	-0.7890825	-1.9420354
1176184537138339	-1.5090026	-0.6817579	-1.1448952
1176184545439120	-1.1328351	-0.29322052	-0.48186088
1176184553739901	-1.1126975	0.25050354	0.0024482012
1176184562040683	-1.3661665	0.8532877	0.14125955
1176184570341464	-1.4223143	0.8799162	0.028789759
1176184578642245	-1.7893207	2.2219954	-0.31775188
1176184586943026	-1.7754413	2.8077822	-0.5132735
1176184595243808	-2.0239806	2.993597	-0.5628414
1176184603544589	-2.4226284	2.812253	-0.54207397
1176184611845370	-2.4763818	2.8152504	-0.5442569
1176184620146151	-2.7291367	2.467929	-0.5599272
1176184628446933	-2.9579358	2.1001377	-1.4318128
1176184636747714	-3.5485828	2.1953592	-2.3456113
1176184645048495	-4.4298487	2.282384	-2.9969378
1176184653349276	-4.9353247	2.242322	-2.834753
1176184661650058	-4.9117384	2.2352953	-2.827525
1176184669950839	-4.5624104	2.665391	-0.4588846
1176184678251620	-4.5219965	2.6583462	-0.47192597
1176184686552401	-3.7387972	4.3749104	-0.8632164
1176184694853183	-3.6110682	4.54679	-1.7864065
1176184703153964	-3.3840332	5.010993	-2.3005795
1176184711454745	-2.8477228	5.6278925	-2.3181663
1176184719755526	-2.1439013	6.069889	-1.7847738
1176184728056308	-1.7754899	6.015915	-0.6562866
1176184736357089	-1.8163694	5.0952396	0.77061
1176184744657870	-1.3521868	3.8581238	1.1152442
1176184752958651	-0.15416706	2.6715803	0.033571243
1176184761259433	1.4008622	1.6422071	-1.6322006
1176184769560214	1.4802608	1.6132431	-1.4351857
1176184777860995	2.8343892	0.8879833	-2.5340033
1176184786161776	3.484657	0.96174145	-0.5435231
1176184794462558	3.2450638	1.5888777	1.3277241
1176184802763339	3.3006918	1.5833979	1.5771269
1176184811064120	2.8712692	2.310049	2.949663
1176184819364901	2.4619024	2.9191751	3.5859954
1176184827665683	2.4069173	3.2001858	3.4806254
1176184835966464	4.2021375	2.1589727	0.4748181
1176184844267245	4.3432784	1.5367823	-1.7647997
1176184852568026	3.0167146	1.424201	-2.4473217
1176184860868808	3.005593	1.4566011	-2.2291412
1176184869169589	0.16052681	2.2200708	-1.1129919
1176184877470370	0.15330847	2.2529058	-0.93283224
1176184885771151	-0.3227951	2.412737	0.08916664
1176184894071933	-0.4168979	2.3820343	-0.48035264
1176184902372714	-0.23406225	2.4466553	-0.8596008
1176184910673495	-0.72310907	2.551588	0.4557464
1176184918974276	-1.4956756	2.4219427	2.6232498
1176184927275058	-1.8997755	1.791522	4.394259
1176184935575839	-1.6851856	0.60273075	5.3815794
1176184943876620	-1.6196628	-0.48279476	5.9914045
1176184952177401	-1.2586694	-1.4041691	6.291794
1176184960478183	-0.7619914	-2.3018894	6.319709
1176184968778964	-0.2678008	-3.2555141	6.177642
1176184977079745	0.19135012	-4.275882	5.9672146
1176184985380526	0.7308542	-5.277775	5.718357
1176184993681308	0.9552604	-6.3685713	4.8066254
1176185001982089	0.90561265	-6.287964	4.947995
1176185010282870	1.2230148	-6.5843105	4.718734
1176185018583651	1.6820468	-6.8360977	4.323022
1176185026884433	1.8048742	-6.992117	3.7303686
1176185035185214	1.8361118	-6.887108	2.764276
1176185043485995	1.7613435	-6.530635	1.6676526
1176185051786776	1.336803	-6.1284914	0.78858805
1176185060087558	0.7179033	-5.802952	0.33595848
1176185068388339	0.18810621	-5.6174498	0.43817806
1176185076689120	0.21402097	-5.674721	1.6286273
1176185084989901	0.21617925	-5.662199	1.6265426
1176185093290683	0.28633848	-5.8995132	1.8507233
1176185101591464	0.38373917	-6.141799	1.573257
1176185109892245	0.5162895	-6.3505917	0.97310543
1176185118193026	0.67172897	-6.496005	0.2303853
1176185126493808	0.8361852	-6.475292	-0.5353794
1176185134794589	1.0119432	-5.9782486	-1.3138976
1176185143095370	0.954586	-5.0312395	-1.5584145
1176185151396151	0.4886491	-3.4530897	-1.1701379
1176185159696933	-0.36579406	-0.9039612	-0.1056447
1176185167997714	-1.4108777	3.209056	1.2786984
1176185176298495	-2.2696698	9.370193	2.1715472
1176185184599276	-2.5363715	17.31759	1.5411465
1176185192900058	-2.258082	23.443188	-0.92204046
1176185201200839	-2.1233475	23.388275	-2.5759075
1176185209501620	-1.8399653	17.227936	-4.322382
1176185217802401	-1.0679694	8.315018	-6.792674
1176185226103183	0.10916427	1.0276308	-9.700487
1176185234403964	0.47164914	-3.1417522	-10.985927
1176185242704745	0.7537104	-5.029066	-9.417947
1176185251005526	0.33189148	-6.0457783	-7.3203335
1176185259306308	-0.6620196	-6.7375164	-4.5143833
1176185267607089	-1.3413888	-7.097945	-1.4772165
1176185275907870	-0.6066104	-6.866088	0.78504324
1176185284208651	1.704253	-5.8191147	1.270371
1176185292509433	2.8939447	-2.7280798	0.039396763
1176185300810214	2.591657	2.3412752	-0.35934305
1176185309110995	1.8666177	6.887245	1.410846
1176185317411776	1.4089001	9.444981	5.5246296
1176185325712558	1.3758419	9.418862	5.495748
1176185334013339	3.9230123	7.4037027	15.175344
1176185342314120	5.749105	3.8615732	12.31723
1176185350614901	4.9885225	1.8044481	8.353899
1176185358915683	3.5677426	0.758379	4.9282637
1176185367216464	3.5913107	0.74052334	4.8807
1176185375517245	2.6504178	0.07042599	1.807863
1176185383818026	0.06519687	-1.0064707	-4.5794735
1176185392118808	-1.9255115	-1.7114067	-5.245331
1176185400419589	-2.087417	-2.9441376	-4.4487925
1176185408720370	-1.3113158	-4.138788	-3.0028813
1176185417021151	-1.3262674	-4.1209574	-2.9738514
1176185425321933	-0.5664787	-5.8317757	1.0446265
1176185433622714	-0.7842247	-5.3294125	4.477461
1176185441923495	-1.1450509	-3.6977434	8.009871
1176185450224276	-1.3598676	-2.2134476	10.312517
1176185458525058	-1.2466917	-1.2047386	10.967581
1176185466825839	-1.0017858	-0.5540781	10.442081
1176185475126620	-0.998724	-0.6290655	10.130992
1176185483427401	-1.1815777	1.3758259	10.165215
1176185491728183	-1.0702044	3.0947342	10.702878
1176185500028964	-0.70082456	4.5080795	9.349949
1176185508329745	-0.5099382	5.367708	6.8068657
1176185516630526	-0.5683119	5.343565	6.6444864
1176185524931308	-1.1720994	5.4693556	2.8177342
1176185533232089	-5.5926394	2.5316133	-12.09913
1176185541532870	-3.0234292	0.5480213	-11.7069435
1176185549833651	-0.7364021	-0.5975008	-7.694563
1176185558134433	-0.7201598	-0.59886837	-7.693125
1176185566435214	0.20967692	-1.3923874	-2.9406955
1176185574735995	0.38307422	-2.7307024	3.7449782
1176185583036776	0.7817122	-3.0542288	5.0365524
1176185591337558	0.74940324	-3.1148272	4.8888316
1176185599638339	0.5856859	-2.8444233	4.1099563
1176185607939120	0.41942775	-2.4229164	3.1403224
1176185616239901	0.28251296	-1.9637213	2.280796
1176185624540683	0.13571364	-1.4504156	1.6749548
1176185632841464	0.076328695	-1.078269	1.1811594
1176185641142245	0.048490703	-1.0735226	1.1569643
1176185649443026	-0.0861125	-0.9931669	0.7790694
1176185657743808	-0.41002893	-0.910656	0.63274556
1176185666044589	-0.9056681	-0.7486105	0.5735076
1176185674345370	-1.4908655	-0.59799767	0.38133436
1176185682646151	-2.0636048	-0.6691303	-0.14696151
1176185690946933	-2.6558857	-0.90374184	-1.0765401
1176185699247714	-2.8176947	-0.7691107	-2.658598
1176185707548495	-2.8362107	-0.75628567	-2.7608361
1176185715849276	-2.1378794	-0.57496357	-2.7898026
1176185724150058	-1.2939438	-0.38036728	-1.9257587
1176185732450839	-0.9572908	-0.009503365	-0.4249791
1176185740751620	-1.0706617	0.6368475	1.1658752
1176185749052401	-2.1837742	1.9867649	1.1549222
1176185757353183	-2.2204835	2.0142336	1.0052651
1176185765653964	-1.9957863	2.6148777	0.018835664
1176185773954745	-1.5224898	3.0817823	-0.850675
1176185782255526	-1.9007752	3.1803703	-0.57877266
1176185790556308	-1.9559723	3.1790695	-0.5645864
1176185798857089	-2.4058323	2.748088	-0.3596524
1176185807157870	-2.657526	2.3661337	-0.46809626
1176185815458651	-2.9867983	2.1441507	-0.97219694
1176185823759433	-3.6956508	2.0405293	-1.9432554
1176185832060214	-6.0400553	1.4696712	-4.1230016
1176185840360995	-6.011114	1.4576015	-4.079027
1176185848661776	-5.8192077	1.4224949	-3.2648602
1176185856962558	-4.5960264	1.9138212	-1.7563941
1176185865263339	-3.161559	2.6948738	-0.73613477
1176185873564120	-2.2445798	3.4183722	-0.91585946
1176185881864901	-2.2536538	3.6807585	-2.0959208
1176185890165683	-2.5969968	3.4926043	-2.4304
1176185898466464	-2.799613	3.453022	-1.3666108
1176185906767245	-2.2990808	3.506341	-0.2275368
1176185915068026	-1.3738246	3.5568695	0.3618797
1176185923368808	-0.6115132	3.5575285	0.33407724
1176185931669589	-0.33616537	3.27837	-0.15491837
1176185939970370	-0.2804979	3.2513447	0.023918033
1176185948271151	0.044118643	2.8798456	-0.5155226
1176185956571933	0.06800258	2.7512074	-0.58671904
1176185964872714	0.1850183	2.6673756	-0.06310473
1176185973173495	0.78493005	2.4603233	0.84689677
1176185981474276	1.588561	2.3977203	1.8183875
1176185989775058	1.4693053	2.7208338	2.4738536
1176185998075839	1.1503856	3.1031952	2.8609128
1176186006376620	1.2744286	3.3438292	2.933906
1176186014677401	1.9958086	3.3265848	2.7001696
1176186022978183	4.1399183	2.6978655	0.5232377
1176186031278964	4.1480417	2.7265549	0.72715235
1176186039579745	4.499322	2.4699764	-0.909708
1176186047880526	4.408661	2.241456	-2.0745208
1176186056181308	3.921977	2.034668	-1.1738157
1176186064482089	3.034009	1.9799461	0.26557636
1176186072782870	1.7407651	2.1183786	0.44401574
1176186081083651	-0.004021108	2.1462593	0.58245254
1176186089384433	-1.5281157	1.8871183	1.7851789
1176186097685214	-2.1455748	1.3334398	2.9264424
1176186105985995	-2.2742643	0.49759293	4.0771003
1176186114286776	-2.1262767	-0.45034885	5.043746
1176186122587558	-2.0474818	-0.41022587	5.147111
1176186130888339	-1.371605	-2.0967665	5.609418
1176186139189120	-1.2061887	-2.8664331	5.60378
1176186147489901	-1.1955127	-3.628644	5.628978
1176186155790683	-0.9440048	-4.3918133	5.388199
1176186164091464	-0.613442	-5.1925764	5.059907
1176186172392245	-0.39302635	-6.007229	4.997691
1176186180693026	0.49412715	-6.5785103	5.2047324
1176186188993808	1.1269323	-6.930647	4.924972
1176186197294589	1.4674494	-7.0583696	4.0940127
1176186205595370	1.7384328	-6.986739	3.0186958
1176186213896151	1.9101381	-6.713249	2.0111432
1176186222196933	1.8297396	-6.2670374	1.3077121
1176186230497714	1.5060925	-5.835449	0.9964447
1176186238798495	1.2853026	-5.5102286	1.045443
1176186247099276	1.1637326	-5.3316574	1.3317633
1176186255400058	1.1529131	-5.3026123	1.3571038
1176186263700839	1.1133511	-5.322767	1.6537747
1176186272001620	1.087982	-5.509957	1.8308549
1176186280302401	0.97924864	-6.0116863	1.375494
1176186288603183	1.0509228	-6.2053246	0.67031
1176186296903964	1.0530326	-6.2397118	0.5904989
1176186305204745	1.2510183	-6.201318	-0.17901134
1176186313505526	1.4106016	-5.777005	-0.8535433
1176186321806308	1.3837464	-4.913187	-1.2499375
1176186330107089	-0.0036204755	-1.487565	-0.5933223
1176186338407870	0.011673212	-1.5762634	-0.7734766
1176186346708651	-2.7869272	7.5664387	1.0365772
1176186355009433	-3.5256064	15.213819	0.82342935
1176186363310214	-3.4960124	15.09039	0.60004306
1176186371610995	-3.534449	22.500141	-0.4208486
1176186379911776	-3.577524	21.005829	-2.7051003
1176186388212558	-4.606103	11.007092	-5.2603974
1176186396513339	-4.583924	10.979097	-5.2640557
1176186404814120	-3.844094	3.0620995	-8.283189
1176186413114901	-2.4385114	-2.250678	-9.812165
1176186421415683	-1.134887	-5.2922373	-9.46648
1176186429716464	-0.3645915	-6.7173176	-8.031654
1176186438017245	-1.0880842	-7.035797	-5.783143
1176186446318026	-1.6315168	-5.4294453	-2.9906929
1176186454618808	-0.36938626	-2.5557423	0.013584137
1176186462919589	2.1388817	0.9284439	2.435635
1176186471220370	4.602991	4.4658203	4.3241625
1176186479521151	4.564204	4.4445963	4.288611
1176186487821933	6.3092046	8.322097	10.096435
1176186496122714	7.045354	6.3832235	11.545385
1176186504423495	7.0107336	2.8685207	10.210587
1176186512724276	5.752625	-0.13375378	7.739562
1176186521025058	3.7418268	-1.6478853	5.270333
1176186529325839	2.0449755	-1.8484802	3.1713722
1176186537626620	1.4814837	-1.9151096	1.0846717
1176186545927401	1.0613801	-2.0123663	-0.5129092
1176186554228183	0.28687146	-1.9046345	-1.2758434
1176186562528964	-0.6069401	-1.9177923	-1.3720412
1176186570829745	-0.56266123	-1.9343548	-1.4171681
1176186579130526	-1.1325403	-2.468442	-1.0665996
1176186587431308	-1.2739171	-2.7662573	0.20243287
1176186595732089	-1.3227842	-3.3700628	2.4022849
1176186604032870	-1.253292	-3.3735914	4.9698114
1176186612333651	-1.0796082	-2.599928	7.414443
1176186620634433	-1.1219583	-2.6546574	7.2285643
1176186628935214	-1.2082523	-0.92597103	9.786343
1176186637235995	-1.2568332	-0.8727169	9.560247
1176186645536776	-1.2871789	-0.60202694	9.654478
1176186653837558	-1.2459276	0.21951962	10.178775
1176186662138339	-1.0176206	1.6488962	10.375793
1176186670439120	-0.6988021	3.205699	9.295039
1176186678739901	-0.62007535	4.056033	6.278776
1176186687040683	-1.2664268	4.088187	2.51977
1176186695341464	-3.1876612	3.5982952	-4.776078
1176186703642245	-3.535208	2.236659	-11.255898
1176186711943026	-3.5739546	2.2416668	-11.1794405
1176186720243808	-1.8295336	0.58165455	-12.367742
1176186728544589	0.39415258	-1.4145145	-2.8380647
1176186736845370	0.10484284	-1.6069431	1.6874006
1176186745146151	-0.13903177	-1.9700747	4.3845663
1176186753446933	-0.33229327	-2.3339834	5.92918
1176186761747714	-0.3177858	-2.346284	5.722412
1176186770048495	-0.5259761	-2.5807781	5.8697925
1176186778349276	-0.8277266	-2.401002	3.280067
1176186786650058	-0.6061561	-2.0473242	2.1255908
1176186794950839	-0.3467158	-1.6229944	1.2655423
1176186803251620	-0.31875193	-1.0517282	0.6979631
1176186811552401	-0.34081262	-1.0484772	0.6656462
1176186819853183	-0.6410092	-0.5362215	0.304274
1176186828153964	-1.2785563	-0.46607494	0.066397935
1176186836454745	-1.5538048	-0.7279606	-0.044753984
1176186844755526	-1.9981112	-0.84240055	-0.28737655
1176186853056308	-2.378059	-0.9015751	-0.65430707
1176186861357089	-2.3855505	-0.89724064	-0.7309054
1176186869657870	-2.6731625	-0.789464	-1.4161537
1176186877958651	-2.6746595	-0.783823	-1.5065472
1176186886259433	-2.362771	-0.49069118	-1.4376079
1176186894560214	-1.8223305	-0.39685345	-1.0753059
1176186902860995	-1.3594303	-0.343565	-0.430507
1176186911161776	-1.1598445	-0.21987534	0.38873965
1176186919462558	-1.1955284	-0.20444489	0.2673207
1176186927763339	-1.3035505	0.17768288	0.9923531
1176186936064120	-1.5966368	2.1699524	0.5840678
1176186944364901	-1.2908332	3.1541634	-0.41277373
1176186952665683	-1.1620094	3.5586681	-0.825346
1176186960966464	-1.202295	3.5652103	-0.88438964
1176186969267245	-1.4614407	3.3264256	-0.5877292
1176186977568026	-2.0821967	2.6954536	0.036352992
1176186985868808	-2.9477215	1.8367605	0.039616346
1176186994169589	-3.005406	1.6964378	-0.5680522
1176187002470370	-3.0384474	1.6929865	-0.5341203
1176187010771151	-3.2592006	1.5343895	-1.4124556
1176187019071933	-3.817824	1.3256578	-2.5105011
1176187027372714	-4.56512	1.1083164	-3.4294004
1176187035673495	-4.6757803	1.0565367	-1.9792974
1176187043974276	-4.6549244	1.0487413	-1.9438866
1176187052275058	-4.1057363	1.9276247	-0.4483484
1176187060575839	-3.6600542	3.062724	-0.041971684
1176187068876620	-3.3259242	4.035757	-1.7891188
1176187077177401	-3.2444806	3.717022	-1.5317916
1176187085478183	-2.9391484	3.4061747	-0.24713808
1176187093778964	-2.9042597	3.3844557	-0.1348316
1176187102079745	-1.5478717	3.7737818	0.73399734
1176187110380526	-1.152137	4.14303	0.7279165
1176187118681308	-1.0967503	4.12029	0.8734528
1176187126982089	-0.527455	3.6674871	0.3101918
1176187135282870	0.4408446	3.2379103	0.117868595
1176187143583651	1.3600732	2.96737	0.28978235
1176187151884433	1.9031668	2.8295488	1.0418268
1176187160185214	1.9754658	2.8296528	1.27794
1176187168485995	2.133057	2.887598	2.2994733
1176187176786776	2.0246465	3.149909	2.9884434
1176187185087558	1.479048	3.4812155	3.0303679
1176187193388339	1.3394918	3.7274961	2.8510833
1176187201689120	2.0627933	3.5221415	2.6544685
1176187209989901	3.3518646	3.020649	2.2504416
1176187218290683	5.2018275	2.5182838	1.6480017
1176187226591464	7.239494	2.2559662	0.8215661
1176187234892245	7.655722	2.1674442	-0.6789465
1176187243193026	6.3769426	2.2019157	-1.8492537
1176187251493808	4.2114596	2.2330284	-0.721349
1176187259794589	2.0354128	2.1262083	0.49556828
1176187268095370	0.15177551	1.872592	1.6667223
1176187276396151	-1.4448361	1.5247526	3.4354072
1176187284696933	-2.6288335	1.0782795	4.710512
1176187292997714	-2.7092466	0.2676134	5.0964155
1176187301298495	-2.7557552	-0.54636097	5.343582
1176187309599276	-2.835145	-1.288887	5.4648886
1176187317900058	-2.8526394	-1.8868046	5.498711
1176187326200839	-2.7920501	-1.8231392	5.6254005
1176187334501620	-2.272274	-3.0186071	5.834427
1176187342802401	-1.6877015	-3.789135	5.853033
1176187351103183	-0.88763237	-4.6143026	5.508491
1176187359403964	-0.2545941	-5.3700447	5.054409
1176187367704745	0.36006263	-6.001091	4.7970686
1176187376005526	0.30471462	-5.911993	4.926185
1176187384306308	2.1019335	-6.807974	4.543552
1176187392607089	2.4911141	-6.9163895	3.7143373
1176187400907870	2.6769435	-6.758572	2.663422
1176187409208651	2.4932773	-6.416274	1.6965837
1176187417509433	1.8942295	-6.0279236	1.0414176
1176187425810214	1.0420917	-5.7036257	0.838748
1176187434110995	0.58940893	-5.487248	1.2867117
1176187442411776	0.6083267	-5.453285	1.9810615
1176187450712558	0.72589314	-5.528529	2.3952794
1176187459013339	0.8897133	-5.7017064	2.439083
1176187467314120	1.0902392	-5.940019	2.1324234
1176187475614901	1.087204	-5.977343	2.0513835
1176187483915683	1.4215733	-6.3264613	0.8558779
1176187492216464	1.640294	-6.1525846	0.05785227
1176187500517245	1.8495915	-5.5014195	-0.5841737
1176187508818026	1.8896475	-4.3248253	-0.8778467
1176187517118808	1.8957329	-4.4111137	-1.0487046
1176187525419589	1.4409034	-2.5776033	-0.7872672
1176187533720370	-1.6875188	5.731469	2.2546086
1176187542021151	-3.030749	14.381794	2.1216404
1176187550321933	-3.3962967	22.91421	1.169656
1176187558622714	-3.3344123	27.056774	0.48499584
1176187566923495	-3.3144426	26.940905	0.31910157
1176187575224276	-3.5745478	14.085401	-3.7557602
1176187583525058	-2.7661412	4.2888927	-8.098932
1176187591825839	-0.99867845	-1.9225073	-12.967611
1176187600126620	-0.49424225	-5.381031	-14.095172
1176187608427401	-0.71538246	-6.937289	-11.955505
1176187616728183	-0.7236614	-6.8481503	-11.745159
1176187625028964	-1.1727415	-6.820836	-4.118229
1176187633329745	-1.4040546	-4.6061525	-0.2746091
1176187641630526	-0.2955433	-0.78649235	2.6815333
1176187649931308	1.7083783	3.4052029	4.4314775
1176187658232089	3.6891677	7.021804	6.356266
1176187666532870	5.1020412	9.039337	8.953383
1176187674833651	5.0434113	9.002675	8.891889
1176187683134433	6.8091545	5.30241	11.516112
1176187691435214	5.977849	1.7165308	9.563654
1176187699735995	4.5402274	-0.6503601	7.2260447
1176187708036776	4.5321684	-0.6449871	7.22075
1176187716337558	3.1029854	-1.9220734	4.7971506
1176187724638339	1.8915316	-2.5557566	2.4563298
1176187732939120	-0.81000185	-2.8735676	-1.241615
1176187741239901	-2.0995855	-2.2467403	-1.6569474
1176187749540683	-2.9571147	-1.7174225	-1.4454751
1176187757841464	-2.8828328	-1.738843	-1.5020804
1176187766142245	-3.048505	-1.6481771	-1.2525728
1176187774443026	-2.2465198	-2.643381	0.56495976
1176187782743808	-1.246916	-3.2370396	2.8107128
1176187791056915	-0.4385928	-2.5601406	5.2202315
1176187799357696	-0.475555	-2.5961857	5.0954847
1176187807658477	0.27226886	-1.7728777	6.932274
1176187815959259	0.6071637	-1.2509003	8.086753
1176187824260040	0.43420103	-1.0376568	8.6786175
1176187832560821	-0.5216322	-0.21769142	9.457093
1176187840861602	-1.1280951	0.7141199	9.504394
1176187849162384	-1.1507992	0.66521263	9.224894
1176187857463165	-1.716287	2.8922892	6.441315
1176187865763946	-1.762261	2.863412	6.244858
1176187874064727	-1.8150649	3.312851	3.8203123
1176187882365509	-3.5965261	2.762556	-2.6309986
1176187890666290	-3.8446434	1.5564194	-7.0841036
1176187898967071	-2.188204	0.28942776	-8.305344
1176187907267852	-2.2135367	0.29054737	-8.284604
1176187915568634	-0.17496479	-0.8289585	-6.4738426
1176187923869415	0.60709393	-1.6479025	-3.3160973
1176187932170196	0.58115375	-1.9564219	-0.06009674
1176187940470977	0.3309641	-1.9799547	2.6353135
1176187948771759	0.122211576	-1.9668922	4.2099338
1176187957072540	-0.0076672435	-2.007841	4.5184183
1176187965373321	-0.048488557	-2.09441	3.9649627
1176187973674102	-0.0053945184	-2.0846758	3.176277
1176187981974884	-0.099678755	-1.1989336	1.6693412
1176187990275665	-0.12344295	-1.1946106	1.6214314
1176187998576446	-0.56243473	-0.7554369	0.9040649
1176188006877227	-0.9413486	-0.5919676	0.4074334
1176188015178009	-1.1914501	-0.62395763	0.17804815
1176188023478790	-1.5826328	-0.79173565	-0.42230347
1176188031779571	-1.6152399	-0.7861328	-0.46373785
1176188040080352	-1.9598265	-0.8889408	-1.136166
1176188048381134	-2.3560164	-0.82123566	-1.9268653
1176188056681915	-2.699911	-0.6277828	-2.4382594
1176188064982696	-2.867426	-0.43510532	-2.38905
1176188073283477	-2.7447438	-0.36021042	-1.6810704
1176188081584259	-2.329974	-0.3435278	-0.5885495
1176188089885040	-2.1113713	-0.12685585	0.5635067
1176188098185821	-2.1224008	0.39255047	1.3390224
1176188106486602	-2.226697	1.1515455	1.3432441
1176188114787384	-2.2381358	2.0293932	0.47328615
1176188123088165	-2.0628319	2.8200693	-0.84824896
1176188131388946	-1.9683429	3.2889376	-1.4738181
1176188139689727	-2.251556	3.2234974	-0.5113294
1176188147990509	-2.8119736	2.8532877	0.34455764
1176188156291290	-3.1013513	2.4718428	0.5159826
1176188164592071	-3.1338613	2.269043	0.0015897751
1176188172892852	-3.6192274	2.3405008	-2.2114167
1176188181193634	-3.636105	2.331954	-2.1636996
1176188189494415	-4.5994883	2.198699	-3.1712112
1176188197795196	-5.390233	2.0328932	-3.4905367
1176188206095977	-5.418617	1.9968805	-2.7444582
1176188214396759	-4.500117	2.2598925	-1.2408564
1176188222697540	-2.1669345	3.290618	-0.1346786
1176188230998321	-2.116153	3.2785378	-0.13812554
1176188239299102	-2.163885	3.256421	-1.4330107
1176188247599884	-2.2456741	3.1494942	-1.9832796
1176188255900665	-1.9669945	3.0869408	-1.6845976
1176188264201446	-1.3257079	3.2246342	-1.0159168
1176188272502227	-1.2681401	3.1990404	-0.8823806
1176188280803009	-0.60458475	4.2222013	-0.309245
1176188289103790	-0.5212673	4.0668592	0.12481207
1176188297404571	-0.23190248	3.570796	0.411688
1176188305705352	0.5132423	2.9046783	0.27635357
1176188314006134	1.5348017	2.2403765	0.00204055
1176188322306915	1.5890594	2.2324	0.22475192
1176188330607696	2.3929605	1.3987293	1.1949961
1176188338908477	2.2193666	1.4463015	2.308356
1176188347209259	1.8714759	1.7413483	2.90066
1176188355510040	1.6271275	2.2444468	3.014504
1176188363810821	1.897248	2.780283	2.7586722
1176188372111602	1.9366461	2.802415	2.953268
1176188380412384	4.6832876	2.9507723	0.8313837
1176188388713165	5.5819545	2.820242	-0.99287
1176188397013946	4.662447	2.811489	-1.6437869
1176188405314727	2.7506182	2.7626781	-1.4686215
1176188413615509	2.7125847	2.8052855	-1.2803361
1176188421916290	1.0336815	2.7597446	-0.497926
1176188430217071	0.46949223	2.283822	0.76380086
1176188438517852	0.498645	1.6154146	1.6540813
1176188446818634	0.015154809	1.3930283	2.652693
1176188455119415	-0.6270774	1.1047726	3.5094926
1176188463420196	-0.6011052	1.1416712	3.61511
1176188471720977	-1.0723072	0.56704426	4.220722
1176188480021759	-1.6311913	-1.0940552	5.325658
1176188488322540	-1.624591	-1.8298588	5.584912
1176188496623321	-1.5166677	-2.5056934	5.563072
1176188504924102	-1.1820941	-3.2938547	5.2141614
1176188513224884	-1.1530722	-3.2299404	5.334043
1176188521525665	-0.8353737	-4.1062	4.9676857
1176188529826446	-0.32125136	-5.571248	4.5314827
1176188538127227	0.18484572	-6.070614	4.0352015
1176188546428009	0.53957	-6.61644	3.940917
1176188554728790	0.49083376	-6.5332985	4.0613523
1176188563029571	0.6276611	-7.0695553	3.8634644
1176188571330352	0.6466812	-7.436037	3.2096
1176188579631134	0.6540792	-7.1491356	1.3297625
1176188587931915	0.27039862	-6.643412	0.82731533
1176188596232696	-0.018194765	-6.2530513	0.80773306
1176188604533477	-0.010671139	-5.987991	1.1957617
1176188612834259	-0.021565735	-5.957633	1.2204351
1176188621135040	0.23423424	-5.819729	1.767631
1176188629435821	0.6638061	-5.8883004	2.2346773
1176188637736602	0.8201898	-5.989244	1.8736696
1176188646037384	1.066719	-6.092398	1.2972164
1176188654338165	1.4063119	-6.1158056	0.5317011
1176188662638946	1.3968167	-6.1637416	0.42867947
1176188670939727	1.7776605	-5.980854	-0.57126236
1176188679240509	2.0601504	-5.397687	-1.7434206
1176188687541290	0.7094924	-2.0578327	-1.3997211
1176188695842071	0.7085637	-2.1454039	-1.5762639
1176188704142852	-0.7943578	1.6926956	-0.21034336
1176188712443634	-2.2889671	8.136368	1.0328066
1176188720744415	-3.2877164	16.722794	1.3647788
1176188729045196	-3.3825774	25.38029	0.8642466
1176188737345977	-3.6950462	20.307873	-0.86036396
1176188745646759	-3.7053137	20.223305	-0.98616767
1176188753947540	-3.077578	10.292179	-4.3623233
1176188762248321	-1.5110406	1.4799137	-8.330814
1176188770549102	0.005174279	-3.8762264	-11.411742
1176188778849884	0.4476661	-6.5118055	-12.3436575
1176188787150665	0.38055432	-7.483098	-10.83955
1176188795451446	0.009711117	-6.922717	-8.328226
1176188803752227	0.06043914	-4.1702805	-4.8049726
1176188812053009	1.1373396	0.97829056	-0.87144446
1176188820353790	3.2337315	7.4432497	3.30217
1176188828654571	5.191964	11.86685	8.462194
1176188836955352	7.3017545	10.542218	14.981469
1176188845256134	7.2169414	10.512258	14.922532
1176188853556915	6.6222258	4.897135	11.643681
1176188861857696	4.9186473	-0.67308044	6.693818
1176188870158477	3.556932	-4.2938375	3.156017
1176188878459259	2.6130223	-6.793454	2.0588148
1176188886760040	2.6542163	-6.742673	2.1410375
1176188895060821	1.6731844	-6.150708	0.083768845
1176188903361602	0.8418435	-5.205839	-2.323172
1176188911662384	0.23136765	-4.1433353	-3.60503
1176188919963165	-0.67279303	-3.0593052	-3.0092883
1176188928263946	-2.7790885	-1.9790268	-1.3942404
1176188936564727	-4.649083	-1.6413479	3.412278
1176188944865509	-4.302484	-1.7302332	7.187789
1176188953166290	-3.7682958	-1.2261887	9.185433
1176188961467071	-4.0737066	0.15441322	10.299754
1176188969767852	-4.085505	0.064824104	10.04805
1176188978068634	-4.8309135	2.7592783	12.277343
1176188986369415	-4.7478957	3.1448364	10.271324
1176188994670196	-4.816902	3.3872337	7.6236815
1176189002970977	-4.2590985	3.029148	5.2159157
1176189011271759	-3.237253	2.2569952	3.2876463
1176189019572540	-2.20381	1.5020361	1.8215075
1176189027873321	-1.4722652	1.2311211	0.7958808
1176189036174102	-1.2465653	1.22966	-1.1241462
1176189044474884	-1.3791862	1.0131435	-3.7383537
1176189052775665	-0.9909986	0.5831585	-4.9024153
1176189061076446	-0.042323053	0.014033318	-4.313383
1176189069377227	0.99181217	-0.6264992	-2.6558304
1176189077678009	1.3988541	-1.3982763	-0.7042991
1176189085978790	1.022021	-2.060954	1.2070309
1176189094279571	0.49745053	-2.3576756	2.4458416
1176189102580352	-0.18581188	-2.5414152	3.4556217
1176189110881134	-0.698753	-2.6543655	4.055593
1176189119181915	-0.690128	-2.659462	3.8776634
1176189127482696	-0.27351797	-2.4649305	3.2893379
1176189135783477	-0.16987807	-2.186243	2.712609
1176189144084259	-0.26710188	-1.9004488	2.1898305
1176189152385040	-0.39573342	-1.5527563	1.6312639
1176189160685821	-0.6246407	-1.1521978	1.0085498
1176189168986602	-0.6626157	-1.1465883	0.9675054
1176189177287384	-1.3092525	-0.5479517	0.24881622
1176189185588165	-1.2458336	-0.6253576	0.18004903
1176189193888946	-1.4612105	-0.7830057	-0.022140428
1176189202189727	-1.8576233	-0.91259384	-0.512655
1176189210490509	-2.3528388	-0.9512224	-1.3172276
1176189218791290	-2.3747332	-0.94328403	-1.399634
1176189227092071	-2.8431478	-0.6814461	-2.6297994
1176189235392852	-2.138444	-0.6172638	-1.7203941
1176189243693634	-2.1616247	-0.60381126	-1.8449413
1176189251994415	-1.4465394	-0.14998627	0.8794972
1176189260295196	-1.6488175	0.45003223	1.6136017
1176189268595977	-1.6973493	0.47253418	1.4662324
1176189276896759	-2.0504968	2.2288904	-0.15133715
1176189285197540	-1.815874	3.1535387	-1.6636279
1176189293498321	-1.7555724	3.6440039	-1.4081408
1176189301799102	-2.1468766	3.6652632	-0.12205553
1176189310099884	-2.1969438	3.6736155	-0.16763842
1176189318400665	-2.941629	3.3408766	1.0815545
1176189326701446	-3.564168	2.5127954	0.2914076
1176189335002227	-3.517727	2.5280943	-1.0741034
1176189343303009	-3.928213	2.5241823	-2.3519816
1176189351603790	-3.951111	2.5158148	-2.2986197
1176189359904571	-4.732523	2.430149	-3.3190687
1176189368205352	-5.547703	2.2799768	-3.7369044
1176189376506134	-5.2692976	2.3203402	-1.6455089
1176189384806915	-3.9922242	2.8974628	0.02949047
1176189393107696	-3.9488373	2.8867807	0.022634625
1176189401408477	-3.1847677	3.3896751	0.47064185
1176189409709259	-2.8886023	3.5903635	-0.13381195
1176189418010040	-2.872179	3.558054	-1.012957
1176189426310821	-2.5391622	3.6610365	-1.3506161
1176189434611602	-2.4861696	3.632413	-1.2369337
1176189442912384	-1.9143192	4.08189	-1.1464015
1176189451213165	-1.4759768	4.4932623	-0.88266695
1176189459513946	-1.0438468	4.5611687	-0.49528337
1176189467814727	-0.4869367	4.169487	-0.048494995
1176189476115509	0.2727955	3.382554	0.3465545
1176189484416290	1.246317	2.4278107	0.3177606
1176189492717071	1.6266719	1.8996391	0.7975181
1176189501017852	1.719046	1.6789274	1.7700722
1176189509318634	1.5177863	1.6006079	2.636523
1176189517619415	1.0961229	1.6475744	3.0087733
1176189525920196	0.6266842	1.9125214	2.8148618
1176189534220977	0.5682999	2.580387	2.1371527
1176189542521759	1.4949708	3.2207718	1.1001201
1176189550822540	2.9201703	3.559638	0.060008287
1176189559123321	4.986836	3.702217	-0.29264438
1176189567424102	6.7788305	3.8210535	0.025016665
1176189575724884	6.876685	4.015191	0.37648964
1176189584025665	4.8208594	3.88165	-0.24899101
1176189592326446	2.6412396	3.4848022	-0.8196628
1176189600627227	1.4021964	2.7684717	-1.0153563
1176189608928009	0.7375763	1.9901886	-0.4428463
1176189617228790	-0.04294634	1.4611788	1.4369605
1176189625529571	-1.4650471	1.3397369	4.687339
1176189633830352	-2.751059	1.0006895	6.534413
1176189642131134	-2.906901	0.034175873	6.704217
1176189650431915	-2.518093	-1.0022497	6.355725
1176189658732696	-1.9847885	-1.8760042	5.8691115
1176189667033477	-1.6898282	-2.5854607	5.482582
1176189675334259	-1.6626635	-2.5173502	5.6204295
1176189683635040	-1.9967961	-3.7359152	4.543273
1176189691935821	-1.7668829	-4.3591385	5.2341356
1176189700236602	-1.129499	-5.049671	5.586138
1176189708537384	-0.5307342	-5.8117056	5.498116
1176189716838165	-0.0030596554	-6.61944	4.976182
1176189725138946	-0.067647815	-6.5254545	5.1049385
1176189733439727	1.710115	-7.9393625	3.0410829
1176189741740509	2.3214388	-7.9698997	2.0032268
1176189750041290	2.394304	-7.5028863	1.0036731
1176189758342071	2.0121796	-6.7881584	0.4550953
1176189766642852	1.2130605	-6.196555	0.6051321
1176189774943634	0.08063102	-6.073834	1.3565865
1176189783244415	-0.0769611	-6.296533	1.7662878
1176189791545196	0.009357572	-6.5645194	1.6776657
1176189799845977	0.2273705	-6.7933974	1.2006373
1176189808146759	0.47809547	-6.928482	0.52606726
1176189816447540	0.732352	-6.893783	-0.1938057
1176189824748321	1.0093467	-6.579519	-0.81659985
1176189833049102	1.1764208	-5.7637215	-0.7722964
1176189841349884	0.91884327	-4.0365267	-0.118139744
1176189849650665	0.011571944	-1.0928211	1.1152148
1176189857951446	-1.4540129	3.5759668	2.7436523
1176189866252227	-3.0084662	10.100187	3.8425093
1176189874553009	-2.9781106	9.970706	3.6080873
1176189882853790	-3.538508	23.63126	0.3341086
1176189891154571	-3.3250184	22.370127	-2.8791578
1176189899455352	-2.2446918	15.728564	-5.1809487
1176189907756134	-2.2414129	15.677193	-5.2210503
1176189916056915	0.75096387	0.8268862	-10.534263
1176189924357696	0.7412084	0.8593674	-10.423257
1176189932658477	1.4111102	-4.731431	-9.920193
1176189940959259	1.3656926	-4.738409	-6.285426
1176189949260040	1.3537769	-4.682	-6.165903
1176189957560821	1.6173798	-3.5820055	-2.6480672
1176189965861602	2.5482726	2.6197844	1.9559727
1176189974162384	2.5459852	2.6225786	1.9705367
1176189982463165	3.5807028	9.986796	4.767569
1176189990763946	3.917388	10.463916	7.0385704
1176189999064727	3.8858058	10.443333	7.021599
1176190007365509	4.0044374	4.1390877	7.174853
1176190015666290	2.9221115	-0.096375465	5.021874
1176190023967071	2.878692	-0.064619064	5.071388
1176190032267852	1.2071241	-5.6700974	2.1946297
1176190040568634	0.89163756	-6.6380444	3.0257425
1176190048869415	0.6331208	-6.5692415	3.893845
1176190057170196	0.37175983	-5.703308	3.9186687
1176190065470977	0.45690894	-5.6938696	3.9245462
1176190073771759	0.37161982	-4.572051	2.7639084
1176190082072540	0.5011679	-3.0173225	-1.135191
1176190090373321	-0.7302283	-1.8428354	-1.9239826
1176190098674102	-0.68079823	-1.8902359	-2.021861
1176190106974884	-2.52712	-0.4549513	-0.6268046
1176190115275665	-3.9346185	0.9942894	2.284252
1176190123576446	-4.32507	2.1465693	5.5882
1176190131877227	-4.508932	2.7570324	10.31321
1176190140178009	-4.504895	2.6663465	10.061169
1176190148478790	-4.619216	2.0922632	9.825644
1176190156779571	-4.3034215	1.3428202	8.194138
1176190165080352	-3.7835033	0.5869074	6.1204834
1176190173381134	-3.2115698	-0.11743069	4.2357755
1176190181681915	-2.1121771	-1.0318356	1.2986121
1176190189982696	-1.7073146	-0.88328743	0.119808316
1176190198283477	-1.7193352	-0.89612865	0.039713502
1176190206584259	-1.4013302	-0.38778687	-0.96938896
1176190214885040	-0.92398614	0.26778507	-1.7621185
1176190223185821	-0.107785046	0.8071108	-2.1776557
1176190231486602	0.93033457	0.9029913	-2.0454092
1176190239787384	1.3464535	0.24411964	-1.3973007
1176190248088165	0.89354646	-0.47027683	-0.5474504
1176190256388946	-0.03413081	-1.0494118	0.28805304
1176190264689727	-0.8200614	-1.4556322	0.9932245
1176190272990509	-0.9864157	-1.7498636	1.5772738
1176190281291290	-0.8862247	-2.0121145	2.2206979
1176190289592071	-0.60887367	-2.1213655	2.3881779
1176190297892852	-0.61024034	-2.1950521	2.2433882
1176190306193634	-0.7490692	-2.1072693	1.9920864
1176190314494415	-0.80389744	-1.8409405	1.6967498
1176190322795196	-0.6378392	-1.4798927	1.3695536
1176190331095977	-0.37414324	-1.1485329	1.0356102
1176190339396759	-0.6687752	-0.83314896	0.7891301
1176190347697540	-1.1459098	-0.5581484	0.7702111
1176190355998321	-1.435482	-0.49369812	0.84082377
1176190364299102	-1.5196154	-0.61555576	0.7987672
1176190372599884	-1.5517257	-0.8282099	0.48024228
1176190380900665	-1.6665484	-1.0940495	-0.25874937
1176190389201446	-1.9990121	-1.3239918	-1.2449456
1176190397502227	-2.4063137	-1.3316631	-2.248828
1176190405803009	-2.676225	-1.2069178	-2.7080078
1176190414103790	-2.6245031	-0.976573	-2.300809
1176190422404571	-2.2498083	-0.6284418	-1.0419421
1176190430705352	-1.996002	-0.16982555	0.6409819
1176190439006134	-2.0654292	0.6426687	1.5993588
1176190447306915	-2.0591743	1.6118708	1.4236258
1176190455607696	-1.9430656	2.6609354	0.32898796
1176190463908477	-1.9450268	3.4375048	-0.9074435
1176190472209259	-2.3378878	3.5843945	-1.2463721
1176190480510040	-3.121655	3.0947008	-0.100198984
1176190488810821	-3.6038773	2.5321913	0.43481553
1176190497111602	-3.5924222	2.2324877	0.04407108
1176190505412384	-3.4467762	2.141018	-0.8830837
1176190513713165	-3.556521	2.1566162	-2.0922503
1176190522013946	-4.129609	2.1906471	-3.4789667
1176190530314727	-5.0559983	2.1472998	-4.762495
1176190538615509	-5.7438073	1.8023415	-4.468978
1176190546916290	-5.88256	1.4100628	-2.5605283
1176190555217071	-5.749448	1.3927479	0.063651204
1176190563517852	-5.358758	2.0287752	1.5934018
1176190571818634	-5.3007317	2.0186625	1.5735908
1176190580119415	-3.5365145	3.7870617	-3.1056914
1176190588420196	-3.294001	4.1345806	-3.4736707
1176190596720977	-3.3423142	4.851286	-1.4765604
1176190605021759	-3.1340647	5.4948845	1.0533938
1176190613322540	-3.0569553	5.4601917	1.1980593
1176190621623321	-0.6825427	5.2839584	1.8099551
1176190629924102	0.59416544	4.989403	0.12530509
1176190638224884	1.0995675	4.804242	-1.3255783
1176190646525665	1.2215431	4.948514	-1.337165
1176190654826446	1.3979759	5.1234818	-0.23280548
1176190663127227	1.4714749	5.111395	0.0024489462
1176190671428009	2.249279	4.948677	3.0563745
1176190679728790	2.009801	4.9096975	4.153459
1176190688029571	1.7170417	4.5904255	4.066333
1176190696330352	1.9008002	3.8997755	3.238967
1176190704631134	1.9417636	3.9187746	3.4398603
1176190712931915	2.8089514	3.1321964	2.0597298
1176190721232696	8.367361	2.3064432	-0.49830306
1176190729533477	9.149616	2.5536737	-1.0208609
1176190737834259	6.297885	2.9587564	-1.3703487
1176190746135040	3.0091183	3.0000305	-1.5410075
1176190754435821	3.0007138	3.0421467	-1.3589313
1176190762736602	0.671003	2.2651825	-1.780494
1176190771037384	0.39652443	1.6717081	-0.07886553
1176190779338165	-1.1323504	1.640398	4.2442436
1176190787638946	-3.186625	1.3721237	7.0332613
1176190795939727	-4.5538387	0.74650955	8.269011
1176190804240509	-4.7027583	-0.14421272	8.317501
1176190812541290	-4.610157	-0.11061382	8.390744
1176190820842071	-3.8174467	-1.0559845	7.737172
1176190829142852	-2.4067779	-2.6186047	6.2502794
1176190837443634	-1.923149	-3.3560839	6.1771545
1176190845744415	-0.9711468	-4.1453514	6.341544
1176190854045196	-0.99677163	-4.0535574	6.5051894
1176190862345977	0.093564585	-4.965063	6.6742687
1176190870646759	0.9992837	-5.944188	6.6685762
1176190878947540	2.8670225	-7.6987896	4.9986777
1176190887248321	3.8882532	-8.149408	3.6409888
1176190895549102	3.7952204	-8.038632	3.7851758
1176190903849884	4.1835465	-8.290726	2.1386714
1176190912150665	1.3275512	-7.8446436	-1.019258
1176190920451446	1.2673011	-7.750866	-0.9080353
1176190928752227	-0.74338347	-6.770533	1.7968712
1176190937053009	-0.7427676	-6.562548	2.7857804
1176190945353790	-0.2109412	-6.6028147	2.9236636
1176190953654571	0.39433432	-6.7819967	2.5627074
1176190961955352	0.35895234	-6.8026996	2.503117
1176190970256134	0.72466826	-6.9970045	1.9393883
1176190978556915	0.9349921	-7.0742207	1.3038669
1176190986857696	1.1609375	-6.861302	0.61579704
1176190995158477	1.3988581	-6.1631284	0.47787094
1176191003459259	1.4636185	-4.959753	0.6618233
1176191011760040	1.136306	-2.981811	0.97728825
1176191020060821	0.28394717	0.046720505	1.2545896
1176191028361602	-1.0710502	4.3981466	1.3434243
1176191036662384	-2.6609492	10.611776	0.43069506
1176191044963165	-3.7235434	17.7062	-1.5270944
1176191053263946	-4.1137094	22.23772	-4.8332043
1176191061564727	-3.4859152	21.110538	-7.2504745
1176191069865509	-1.9325354	14.240673	-7.611558
1176191078166290	-0.22214973	6.169463	-7.7328043
1176191086467071	1.8878243	-2.1136866	-8.325679
1176191094767852	1.8481197	-2.0695791	-8.217368
1176191103068634	1.5217769	-3.8320274	-6.149682
1176191111369415	0.83393455	-4.7638454	-3.6444385
1176191119670196	0.22084612	-5.2330914	-1.3634422
1176191127970977	0.2179569	-5.198224	-1.3088257
1176191136271759	0.9914202	-4.988241	1.0996108
1176191144572540	2.0694833	-3.2461166	0.5138962
1176191152873321	2.4538178	0.015415192	0.052905083
1176191161174102	2.2374032	3.7225971	0.5393007
1176191169474884	1.9979725	6.489071	2.4569616
1176191177775665	2.506937	7.513139	5.838275
1176191186076446	3.2065396	7.238079	10.279829
1176191194377227	5.0961833	5.1768847	11.138964
1176191202678009	6.521375	2.7846985	9.218662
1176191210978790	6.8013287	1.4417515	5.5876074
1176191219279571	5.546715	1.9321108	1.5578473
1176191227580352	2.5175762	3.5067167	-2.1244774
1176191235881134	-1.0031166	3.6532564	-4.007498
1176191244181915	-3.0271268	2.1194506	-3.5418565
1176191252482696	-3.3874426	0.17548561	-2.0135245
1176191260783477	-3.3487484	-1.5680552	-0.27442813
1176191269084259	-3.9930902	-3.09278	1.2271075
1176191277385040	-4.6062994	-4.9194374	2.551303
1176191285685821	-4.363657	-5.5424376	4.9196534
1176191293986602	-4.0355344	-4.8091097	7.199135
1176191302287384	-3.4151433	-3.6587372	8.51292
1176191310588165	-2.5242705	-2.7570772	8.636335
1176191318888946	-1.6106665	-2.3769512	7.86633
1176191327189727	-1.0868787	-2.2335024	6.944748
1176191335490509	-1.3294914	-1.8429966	6.722433
1176191343791290	-1.8294994	-1.2507505	5.8782377
1176191352092071	-2.1209128	-0.3089409	4.810367
1176191360392852	-1.9384478	1.3081999	4.3057394
1176191368693634	-1.9846115	1.2819109	4.1169987
1176191376994415	1.2850529	5.617876	5.7950587
1176191385295196	2.4224129	5.2879725	4.2443943
1176191393595977	1.170367	3.8743439	0.8699366
1176191401896759	-0.44918555	1.9371052	-4.9130044
1176191410197540	-0.5850845	0.17126751	-8.692118
1176191418498321	-0.6451366	0.17276955	-8.7319765
1176191426799102	1.8442988	-1.4144783	-2.5600297
1176191435099884	1.1622114	-1.5133228	0.8802365
1176191443400665	0.10747486	-1.7536364	2.9829335
1176191451701446	-0.8473984	-1.9286156	4.039311
1176191460002227	-0.81194323	-1.9297733	3.883008
1176191468303009	-0.93940914	-2.2534933	4.021251
1176191476603790	-0.5048507	-2.423709	3.1696208
1176191484904571	-0.70636547	-2.183072	2.0975113
1176191493205352	-1.0796554	-1.632698	1.2709277
1176191501506134	-1.2224432	-1.1031637	0.7542863
1176191509806915	-1.1993822	-0.75916004	0.5112666
1176191518107696	-1.3115661	-0.6208792	0.44453216
1176191526408477	-1.7141035	-0.6311197	0.40875527
1176191534709259	-2.3055081	-0.67610073	0.12198898
1176191543010040	-2.7187214	-0.7723961	-0.74337023
1176191551310821	-3.015111	-0.8706484	-2.0442684
1176191559611602	-3.3093193	-0.8284712	-3.350261
1176191567912384	-3.3188243	-0.8181505	-3.4345381
1176191576213165	-3.3509169	-0.073553085	-2.8822417
1176191584513946	-2.7262974	0.44633484	-0.53121233
1176191592814727	-2.6490085	1.1305361	1.5030807
1176191601115509	-2.9311905	2.0916862	2.3392887
1176191609416290	-2.9645581	2.1186438	2.159505
1176191617717071	-2.9768622	3.2593708	1.489645
1176191626017852	-1.2927998	4.5811863	-1.4519048
1176191634318634	-1.5934979	3.9802618	-1.0909389
1176191642619415	-2.3661518	3.2492476	-0.41478992
1176191650920196	-2.411898	3.2476187	-0.4024446
1176191659220977	-2.87502	2.5188541	-0.043222904
1176191667521759	-2.6295497	1.678215	-0.7713232
1176191675822540	-3.0619156	1.5878983	-1.5680714
1176191684123321	-4.2446604	1.4876795	-3.1321032
1176191692424102	-5.2062855	1.2280302	-4.5056267
1176191700724884	-5.1289105	0.9775524	-4.7301044
1176191709025665	-4.0787573	0.9451399	-3.4468534
1176191717326446	-4.0386686	0.93783	-3.437427
1176191725627227	-2.8537445	1.3239098	-1.1214559
1176191733928009	-2.5882797	2.2407703	0.56499255
1176191742228790	-2.4476118	3.3374481	-0.28204095
1176191750529571	-2.182744	3.7007828	-2.3715436
1176191758830352	-2.2411928	3.5079536	-3.4784598
1176191767131134	-2.6049352	3.1040983	-2.6279662
1176191775431915	-2.819978	2.7578163	-0.4515071
1176191783732696	-2.714839	2.2623377	1.2553644
1176191792033477	-1.8772843	2.3213882	0.8791061
1176191800334259	-1.8551683	2.3023548	1.0089791
1176191808635040	-1.3157783	2.262538	0.0985834
1176191816935821	-1.1976953	2.1461258	-0.60685337
1176191825236602	-1.8570014	2.2789907	-0.6136749
1176191833537384	-0.8162823	2.2409964	0.93338424
1176191841838165	0.32031387	2.196783	1.8870162
1176191850138946	0.40518177	2.1923637	2.1055684
1176191858439727	0.7952474	2.5450659	2.788228
1176191866740509	0.522678	3.2170362	3.0674105
1176191875041290	0.5157827	4.289034	2.438931
1176191883342071	0.56372863	4.3002005	2.6227403
1176191891642852	1.8383522	3.870942	1.971542
1176191899943634	3.0039396	3.3932161	1.2754048
1176191908244415	3.8291512	3.1301212	0.7544838
1176191916545196	4.503138	2.9924173	0.31565177
1176191924845977	5.3829627	2.6610432	-0.32338858
1176191933146759	5.7453775	2.3648872	-0.2978773
1176191941447540	3.8590326	2.1563835	-0.3569007
1176191949748321	2.0845816	1.5837221	-0.4092064
1176191958049102	0.661354	0.9271736	0.4014287
1176191966349884	-0.5275338	0.45067883	2.0931373
1176191974650665	-1.5708723	0.1513567	3.6450825
1176191982951446	-2.082464	-0.47618675	4.972641
1176191991252227	-2.2522624	-1.4144678	5.9986734
1176191999553009	-2.4090111	-2.3617573	6.2180986
1176192007853790	-2.3231692	-3.1914692	5.9253864
1176192016154571	-1.9559126	-3.8341036	5.480175
1176192024455352	-1.5348604	-4.826399	4.666175
1176192032756134	-1.515418	-4.7627563	4.7942147
1176192041056915	-1.0946211	-5.2896004	4.1998997
1176192049357696	-0.6536958	-5.9008474	3.8729737
1176192057658477	-0.079874516	-6.454529	3.737448
1176192065959259	0.64028597	-6.83755	3.6032882
1176192074260040	1.2608435	-7.0492563	3.3599095
1176192082560821	1.5653794	-7.1724644	2.8573751
1176192090861602	1.5554411	-7.039501	2.286343
1176192099162384	1.1840147	-6.7330475	1.594367
1176192107463165	0.67081237	-6.378132	0.9781685
1176192115763946	0.32667202	-6.088254	0.6757989
1176192124064727	0.3086705	-6.059762	0.7010884
1176192132365509	0.5666598	-5.843981	1.1938305
1176192140666290	0.65954727	-5.92093	1.3357806
1176192148967071	0.87785435	-6.0518045	1.125195
1176192157267852	1.2242467	-6.1398764	0.56635046
1176192165568634	1.6521235	-6.080205	-0.25947857
1176192173869415	1.6406157	-6.1289473	-0.37898493
1176192182170196	2.1611502	-5.010298	-1.4108133
1176192190470977	1.652632	-3.3200817	-0.88988113
1176192198771759	0.49760175	-0.25972366	0.2194109
1176192207072540	-1.258771	4.888364	1.6302962
1176192215373321	-1.2441146	4.785918	1.3908081
1176192223674102	-3.9893596	22.699108	1.3366301
1176192231974884	-3.5124156	28.403467	-1.4092941
1176192240275665	-3.4240906	25.278378	-2.8271055
1176192248576446	-3.702669	15.821038	-5.40382
1176192256877227	-3.113723	5.3509083	-8.908613
1176192265178009	-1.399728	-2.152854	-12.095703
1176192273478790	-1.3972018	-2.1039124	-11.916536
1176192281779571	-1.110172	-8.002604	-11.263275
1176192290080352	-1.7100106	-8.556482	-8.695427
1176192298381134	-1.5464885	-7.3788767	-5.2837973
1176192306681915	-0.24312776	-4.215701	-1.412751
1176192314982696	-0.20367786	-4.1833496	-1.3455005
1176192323283477	2.0522995	0.7201481	2.376749
1176192331584259	4.731173	9.525209	9.474208
1176192339885040	5.167145	10.234056	13.089235
1176192348185821	5.8908257	8.074579	13.83363
1176192356486602	5.8319817	8.056291	13.794181
1176192364787384	5.914381	4.0650187	11.192889
1176192373088165	3.3691177	-1.5734987	3.0113864
1176192381388946	2.7360282	-2.738369	0.7223811
1176192389689727	1.5170465	-3.442956	-1.3957534
1176192397990509	-0.43585002	-3.6318274	-3.2019453
1176192406291290	-2.4543283	-3.405448	-4.167539
1176192414592071	-3.7379901	-3.0047197	-3.858267
1176192422892852	-4.100835	-2.801034	-2.444119
1176192431193634	-4.337107	-2.7904196	0.533638
1176192439494415	-3.7062678	-2.9651356	4.211883
1176192447795196	-2.7653875	-2.9167833	6.7613378
1176192456095977	-2.1141136	-2.2756405	8.246254
1176192464396759	-1.991154	-1.0098257	9.143913
1176192472697540	-1.8167827	0.0063943863	9.027225
1176192480998321	-1.2429633	-0.046782494	8.405843
1176192489299102	-1.2387816	-0.11980152	8.112149
1176192497599884	-0.7337291	0.7451744	8.342274
1176192505900665	-0.75230646	0.69073963	8.0491905
1176192514201446	-1.0001632	1.5163803	7.6625557
1176192522502227	-1.0676603	2.422391	6.4437275
1176192530803009	-0.50367326	3.0925817	4.840212
1176192539103790	-0.4797855	2.9964304	1.6145754
1176192547404571	-1.8454485	2.5683632	-1.1058908
1176192555705352	-1.912569	2.5657253	-1.144271
1176192564006134	-3.0805807	1.6476555	-4.7260933
1176192572306915	-0.25925517	-0.5420809	-7.0039005
1176192580607696	0.6488957	-1.1485176	-4.2282257
1176192588908477	0.5535168	-1.5633221	-1.1303109
1176192597209259	0.040438175	-1.9631844	1.7239012
1176192605510040	0.04287702	-1.9654055	1.5769244
1176192613810821	-0.4746915	-2.3064451	3.5996335
1176192622111602	-0.8412894	-2.4888754	4.698408
1176192630412384	-0.62777144	-2.433445	4.323322
1176192638713165	-0.62435603	-2.4248257	4.188105
1176192647013946	-0.44574368	-2.037346	3.4736266
1176192655314727	-0.46554464	-2.0272045	3.393117
1176192663615509	-0.49673182	-2.016365	3.3302062
1176192671916290	-0.9579854	-1.2368555	1.4117157
1176192680217071	-0.9044658	-1.0775328	0.2825411
1176192688517852	-1.1669846	-0.9804363	-1.0783265
1176192696818634	-1.702934	-0.8412628	-2.2699924
1176192705119415	-2.462366	-0.5479574	-3.480209
1176192713420196	-2.4993775	-0.53530216	-3.5411446
1176192721720977	-3.5140567	0.16851425	-3.9599838
1176192730021759	-2.4218307	0.045430183	-0.57280004
1176192738322540	-2.4529514	0.06841087	-0.7183963
1176192746623321	-2.1549485	0.13410187	0.40371168
1176192754924102	-2.2254412	0.42827034	0.7520423
1176192763224884	-2.4345489	0.92457676	0.36537623
1176192771525665	-2.4515717	1.5153456	-0.40612423
1176192779826446	-2.16255	2.0722895	-0.96828127
1176192788127227	-2.0451584	2.625825	-0.73925626
1176192796428009	-2.4120278	3.1001997	-0.32774925
1176192804728790	-2.9526863	3.147087	-0.1680789
1176192813029571	-3.0137887	3.149168	-0.14826298
1176192821330352	-3.4210105	2.2520533	-0.5791892
1176192829631134	-3.5334883	1.9697475	-0.8042438
1176192837931915	-4.1674576	1.8706446	-1.5154563
1176192846232696	-5.1436377	1.8178225	-2.5919328
1176192854533477	-5.145985	1.8087053	-2.5441046
1176192862834259	-6.2738442	1.7435026	-3.1885865
1176192871135040	-7.29627	2.0173588	-1.6584673
1176192879435821	-6.184408	2.724369	-0.05298245
1176192887736602	-4.5370955	3.4948273	-0.24668026
1176192896037384	-3.5258274	3.9323454	-1.2189399
1176192904338165	-3.465694	3.910225	-1.1916809
1176192912638946	-2.9445477	4.4276447	-1.1648391
1176192920939727	-2.8768	4.3921194	-1.0634664
1176192929240509	-1.4185615	5.037588	0.6118616
1176192937541290	-0.85979664	4.9500237	1.1827533
1176192945842071	-0.2228775	4.4644556	1.0944356
1176192954142852	-0.13790023	4.429084	1.2345313
1176192962443634	2.0119674	3.2664394	-1.6145712
1176192970744415	2.0834877	3.237916	-1.4220715
1176192979045196	2.79361	3.42247	-1.8455305
1176192987345977	2.89322	3.239172	0.1453221
1176192995646759	2.5750546	3.190711	2.044158
1176193003947540	2.6398416	3.1847305	2.2701252
1176193012248321	1.8649285	3.298643	3.4644637
1176193020549102	0.96963143	3.4612904	3.8229299
1176193028849884	1.2904701	3.0656166	2.7821562
1176193037150665	2.739432	2.5686073	1.4905457
1176193045451446	2.746661	2.5866194	1.6705214
1176193053752227	3.9523768	2.4160042	0.11592758
1176193062053009	5.008524	2.3409634	-0.90110767
1176193070353790	5.487783	2.185111	-0.95222306
1176193078654571	2.4742637	1.5467501	-0.48510242
1176193086955352	0.6320869	1.4681578	-0.5719762
1176193095256134	0.61797374	1.5022831	-0.42521286
1176193103556915	-0.49597436	1.4844503	-0.099918604
1176193111857696	-1.443373	1.4438477	1.0127654
1176193120158477	-2.3123562	1.217782	2.689137
1176193128459259	-2.6136975	-0.41420555	4.864156
1176193136760040	-2.5297818	-0.39158535	4.936785
1176193145060821	-2.1130025	-1.4540873	5.743003
1176193153361602	-1.7608647	-2.2713757	6.260899
1176193161662384	-1.2528292	-3.0343742	6.334771
1176193169963165	-0.49729306	-3.8550863	5.951935
1176193178263946	0.22569586	-5.250039	4.8537903
1176193186564727	0.2057806	-5.1853857	4.9806275
1176193194865509	1.0842047	-6.3728886	4.348321
1176193203166290	1.0436076	-6.3010817	4.4740353
1176193211467071	1.364182	-6.6296263	4.1055145
1176193219767852	1.49818	-6.84315	3.6474204
1176193228068634	1.5158486	-7.164954	1.721364
1176193236369415	1.1552858	-6.846529	0.7373891
1176193244670196	1.1287599	-6.7793636	0.83622265
1176193252970977	0.50969493	-6.333894	0.059875965
1176193261271759	-0.25917238	-5.9095116	-0.27291298
1176193269572540	-0.9109934	-5.6247425	-0.08857632
1176193277873321	-1.0602273	-5.545123	0.49119806
1176193286174102	-0.48922616	-5.6393375	1.1053557
1176193294474884	-0.1052832	-5.7911863	1.2365637
1176193302775665	0.12681621	-5.908228	0.88732195
1176193311076446	0.38600928	-5.9735727	0.16271925
1176193319377227	0.73454565	-5.9004345	-0.7720833
1176193327678009	1.0111954	-5.4868984	-1.6926107
1176193335978790	1.0322409	-4.531151	-1.5701165
1176193344279571	0.827681	-2.7626543	-0.97265506
1176193352580352	0.30273676	0.25205994	0.11147666
1176193360881134	-0.5962532	5.168277	1.7516611
1176193369181915	-1.5748107	12.242618	3.0874605
1176193377482696	-1.899718	20.86288	2.1247268
1176193385783477	-1.4126918	25.994747	0.7268727
1176193394084259	-1.6268737	22.738224	-2.3437042
1176193402385040	-2.1045926	13.942831	-5.8933744
1176193410685821	-1.8155515	4.470086	-9.518517
1176193418986602	-1.8037843	4.493575	-9.375736
1176193427287384	-0.5106835	-5.066946	-12.880789
1176193435588165	-1.7165711	-6.363966	-10.730216
1176193443888946	-2.0445495	-7.250041	-7.83465
1176193452189727	-1.9461005	-7.1632614	-4.4674053
1176193460490509	-1.3556873	-5.8771286	-1.2303176
1176193468791290	-0.039269984	-3.3587084	1.3378696
1176193477092071	-0.033193946	-3.341196	1.3622034
1176193485392852	3.635656	4.089835	4.7322197
1176193493693634	4.0434256	6.247674	7.200682
1176193501994415	3.9746664	7.361335	10.644369
1176193510295196	4.053614	7.01501	12.636679
1176193518595977	4.407851	5.1420145	11.22172
1176193526896759	4.2861795	2.9129276	7.124568
1176193535197540	4.3690224	1.8013191	3.6825001
1176193543498321	4.6215534	0.6795492	0.28155327
1176193551799102	2.9540303	-0.2451868	-2.4533212
1176193560099884	2.9846554	-0.24106693	-2.4309132
1176193568400665	-0.0054603815	-0.95431614	-4.390506
1176193576701446	-3.0319037	-2.3310032	-4.662362
1176193585002227	-2.1965609	-2.8179674	-2.2201903
1176193593303009	-2.4499514	-3.3391533	0.7720411
1176193601603790	-2.8172235	-3.7967644	3.891919
1176193609904571	-2.8371563	-3.8199034	3.7975993
1176193618205352	-3.0281143	-3.6910362	6.5397253
1176193626506134	-2.9397225	-1.2457132	9.96694
1176193634806915	-2.166655	-0.5461626	9.817225
1176193643107696	-1.388587	-0.58444023	8.81784
1176193651408477	-1.0249703	-0.4483986	8.002609
1176193659709259	-1.0144715	-0.50672245	7.70678
1176193668010040	-1.637768	0.7784138	6.50817
1176193676310821	-2.1280189	1.3478651	4.926756
1176193684611602	-1.8486643	2.1942616	3.928814
1176193692912384	-1.0249746	2.7784042	3.4715605
1176193701213165	-0.44522727	3.0106478	2.5403764
1176193709513946	-0.8004886	2.8431168	0.5734457
1176193717814727	-0.8726354	2.8409967	0.53033465
1176193726115509	-3.2991788	1.1183157	-6.5364633
1176193734416290	-1.6040481	-0.008874893	-7.0640225
1176193742717071	-0.13242078	-0.89511204	-5.0913887
1176193751017852	0.30406833	-1.5186634	-2.2188716
1176193759318634	0.29156184	-1.5189972	-2.3081386
1176193767619415	-0.028310418	-1.8338127	0.36620724
1176193775920196	-1.0770462	-2.038598	3.4727948
1176193784220977	-1.4355688	-2.1342278	3.6383529
1176193792521759	-1.315904	-2.1532898	3.1983974
1176193800822540	-1.3099059	-2.1462107	3.0715587
1176193809123321	-1.0692695	-2.1614075	2.4152362
1176193817424102	-0.9472889	-1.8493156	1.2860053
1176193825724884	-1.3138771	-1.2782917	0.92847776
1176193834025665	-1.800317	-0.6848049	0.5972145
1176193842326446	-1.9122967	-0.46714592	0.23083895
1176193850627227	-1.9515952	-0.45748425	0.1839127
1176193858928009	-1.9239905	-0.45139122	-0.27668673
1176193867228790	-2.3020682	-0.6423912	-1.728745
1176193875529571	-2.6799688	-0.7367201	-2.3888235
1176193883830352	-2.9718866	-0.5458851	-2.3851128
1176193892131134	-2.9964118	-0.5315809	-2.4640963
1176193900431915	-3.2974095	-0.206213	-1.6050111
1176193908732696	-3.17297	-0.103993416	-1.038821
1176193917033477	-3.1972146	-0.08326149	-1.1520853
1176193925334259	-2.0990062	0.5038166	0.06612611
1176193933635040	-2.1511679	1.137804	0.0030126572
1176193941935821	-2.2932277	1.8552141	-0.4435122
1176193950236602	-2.20791	2.5076838	-0.88509583
1176193958537384	-2.2564955	2.5288363	-0.968194
1176193966838165	-2.1508796	2.9904108	-1.1359857
1176193975138946	-3.280118	2.972374	-0.24719799
1176193983439727	-3.3627138	2.865919	-0.15427363
1176193991740509	-3.422248	2.8811665	-0.39667702
1176194000041290	-3.4580688	2.8872366	-0.41046357
1176194008342071	-3.6121268	2.9137506	-0.84556675
1176194016642852	-3.9399462	2.8410053	-1.7152594
1176194024943634	-4.451982	2.6151323	-3.275447
1176194033244415	-4.894877	2.2916718	-4.467623
1176194041545196	-4.9757614	1.8325548	-3.8773618
1176194049845977	-4.616335	1.5326366	-2.2738311
1176194058146759	-4.0284314	1.6575422	-0.79042363
1176194066447540	-3.4587646	2.2360382	-0.30746734
1176194074748321	-3.1003537	3.0578537	-1.1290947
1176194083049102	-2.9473274	3.7227755	-2.0520692
1176194091349884	-2.899087	4.3449697	-2.0254931
1176194099650665	-2.5543673	4.9459915	-1.8129251
1176194107951446	-2.2651043	5.377717	-1.453492
1176194116252227	-2.117495	5.440263	-0.84526837
1176194124553009	-1.8287787	4.9312105	0.124529004
1176194132853790	-1.2612706	4.260848	0.9830209
1176194141154571	-0.58736706	3.6628523	1.1582419
1176194149455352	0.3168466	3.042634	0.81002235
1176194157756134	1.037627	2.5274944	0.47725326
1176194166056915	1.3358263	2.256648	0.5624588
1176194174357696	1.3983415	2.2407236	0.8067432
1176194182658477	0.9496927	2.5039396	1.7366109
1176194190959259	0.4826079	2.7643042	2.027694
1176194199260040	0.35693645	2.9821243	2.2109256
1176194207560821	1.0351511	3.0486317	2.2284632
1176194215861602	3.0261488	2.872284	2.0882165
1176194224162384	6.5795894	2.4328012	1.854884
1176194232463165	8.978107	2.0982437	0.82488406
1176194240763946	6.9218884	2.254962	-0.8670826
1176194249064727	3.7223444	2.596013	-2.3006966
1176194257365509	1.5363799	2.4929504	-2.2737148
1176194265666290	0.7471061	1.8315706	-0.8427341
1176194273967071	0.7636332	1.8683348	-0.66343737
1176194282267852	-0.35396874	1.1331701	1.3613908
1176194290568634	-0.96361125	0.8739052	3.0442371
1176194298869415	-1.577114	0.40097237	4.24158
1176194307170196	-2.1122277	-0.29708862	5.0075626
1176194315470977	-2.0444746	-0.27245045	5.0917473
1176194323771759	-2.4821396	-1.0703554	5.7608943
1176194332072540	-2.7461233	-2.639182	6.2621565
1176194340373321	-2.70125	-3.4866047	6.1174655
1176194348674102	-2.132039	-4.365958	5.8373117
1176194356974884	-1.3383026	-5.087303	5.243968
1176194365275665	-1.3554413	-5.015991	5.382722
1176194373576446	-0.3947369	-6.090598	3.9229424
1176194381877227	0.07331592	-6.7138205	3.5178576
1176194390178009	0.47096068	-7.305793	3.2235928
1176194398478790	0.990917	-7.68958	2.7262373
1176194406779571	1.4445791	-7.647895	1.9480896
1176194415080352	1.4139726	-7.5722494	2.0546775
1176194423381134	0.6976964	-6.634036	0.3400283
1176194431681915	-0.091020346	-6.217863	-0.07637119
1176194439982696	-0.4361716	-6.0118904	0.154706
1176194448283477	-0.41022468	-6.009205	0.7507076
1176194456584259	-0.17786378	-6.1758213	1.2768416
1176194464885040	0.10542792	-6.439102	1.3647752
1176194473185821	0.40809327	-6.7075167	0.9078393
1176194481486602	0.9337145	-6.909936	-0.21059704
1176194489787384	1.2895656	-6.8908567	-1.41472
1176194498088165	1.4081671	-6.3401318	-2.2317915
1176194506388946	1.1637316	-5.096445	-2.4495153
1176194514689727	1.1539146	-5.1675043	-2.6207733
1176194522990509	0.39591265	-2.995802	-2.1189044
1176194531291290	-2.4369273	6.781662	1.992816
1176194539592071	-2.962739	16.286236	2.3922682
1176194547892852	-2.5296721	25.037788	1.7936943
1176194556193634	-2.5105922	24.907658	1.5430918
1176194564494415	-1.1400089	28.637716	0.20667076
1176194572795196	2.138623	11.6075	-5.920472
1176194581095977	2.5001137	2.3701239	-8.952593
1176194589396759	2.1889865	-3.6701756	-10.881286
1176194597697540	1.1387072	-6.9790306	-10.441055
1176194605998321	1.1501172	-6.906152	-10.221337
1176194614299102	-0.938549	-8.134877	-5.735633
1176194622599884	-1.6771116	-6.319556	-4.0528145
1176194630900665	-2.0043488	-2.0757303	-2.673634
1176194639201446	-0.9675934	2.7503796	-0.69979143
1176194647502227	-0.98739654	2.7708569	-0.6382003
1176194655803009	1.9598655	8.003541	6.8532887
1176194664103790	1.9076807	7.9970627	6.8517847
1176194672404571	3.5035045	5.9310694	12.088112
1176194680705352	1.816069	2.92455	7.7101283
1176194689006134	0.9380815	0.496727	4.254715
1176194697306915	0.9947159	-1.5973806	2.728106
1176194705607696	1.038075	-1.5731373	2.788101
1176194713908477	1.3792584	-3.214614	2.6059422
1176194722209259	0.40246356	-4.5890465	-0.36390924
1176194730510040	0.18907374	-4.8824787	-3.2060707
1176194738810821	-0.1014542	-4.656022	-4.341723
1176194747111602	-0.028966367	-4.6582785	-4.348546
1176194755412384	-0.7805089	-4.074792	-3.7898607
1176194763713165	-1.8913801	-3.412757	-1.2035584
1176194772013946	-2.5404065	-2.539198	6.993159
1176194780314727	-3.0223532	-0.3603859	9.276779
1176194788615509	-3.096585	-0.41965675	9.080584
1176194796916290	-3.8961182	1.6369219	10.828905
1176194805217071	-4.005685	2.5315552	11.237853
1176194813517852	-3.3393712	2.3848686	10.208956
1176194821818634	-2.679823	2.208727	8.491027
1176194830119415	-2.6583812	2.5138273	6.795656
1176194838420196	-2.6311758	2.3700619	4.829813
1176194846720977	-2.2061808	1.9610701	3.0355601
1176194855021759	-1.3906851	1.7201271	1.8899891
1176194863322540	-0.45489228	1.798274	1.076954
1176194871623321	0.08715713	2.001175	-0.43773162
1176194879924102	-0.4095155	1.951396	-3.785581
1176194888224884	-0.75338703	1.2582932	-5.547328
1176194896525665	-0.2190097	0.46764565	-5.076636
1176194904826446	0.40195644	-0.32030296	-3.4932454
1176194913127227	0.56273985	-1.0560799	-1.5593154
1176194921428009	0.20157218	-1.6976423	0.36919498
1176194929728790	-0.021262527	-2.1672459	1.9782739
1176194938029571	-0.32558548	-2.3426924	2.8766747
1176194946330352	-0.85098445	-2.6135073	3.3288958
1176194954631134	-1.2542014	-2.8828058	3.418211
1176194962931915	-1.3065424	-3.004468	3.276813
1176194971232696	-1.0384102	-2.878581	2.9827526
1176194979533477	-0.8098516	-2.474496	2.482635
1176194987834259	-0.85264224	-1.7974882	1.6677717
1176194996135040	-1.034817	-1.109931	0.85405
1176195004435821	-1.2006147	-0.5871887	0.21831912
1176195012736602	-1.2420942	-0.577363	0.16557509
1176195021037384	-1.2733873	-0.24920368	-0.28050703
1176195029338165	-1.4874656	-0.3908825	-0.57922333
1176195037638946	-1.8856719	-0.5075331	-1.1459209
1176195045939727	-2.40536	-0.5177994	-1.8729005
1176195054240509	-2.9036436	-0.43027592	-2.4411142
1176195062541290	-2.926367	-0.4136591	-2.537168
1176195070842071	-2.999549	-0.34302425	-2.1302218
1176195079142852	-2.4441023	-0.17517376	-1.3472819
1176195087443634	-2.08788	0.11977577	-0.43232822
1176195095744415	-2.0405235	0.5745163	0.21465981
1176195104045196	-2.1825757	1.1380892	0.35626423
1176195112345977	-2.383656	1.7911797	-0.07976854
1176195120646759	-2.441176	1.813796	-0.15540147
1176195128947540	-2.6465383	3.1212988	-1.2518907
1176195137248321	-2.8197985	3.1993217	-0.6890913
1176195145549102	-3.0373535	3.0106983	-0.117881894
1176195153849884	-3.2587817	2.8425426	0.08425498
1176195162150665	-3.5693102	2.8620653	-0.16171288
1176195170451446	-3.5972273	2.8669062	-0.17592454
1176195178752227	-4.878235	3.0021458	-1.7471225
1176195187053009	-5.3742228	2.9073792	-3.4668863
1176195195353790	-5.4050713	2.6104317	-4.4188714
1176195203654571	-4.747528	2.027254	-4.403768
1176195211955352	-4.7158885	2.0181484	-4.39303
1176195220256134	-3.6057658	1.2361832	-3.6425877
1176195228556915	-2.5966897	0.67574596	-1.398175
1176195236857696	-2.5000348	1.6220045	-1.1209445
1176195245158477	-2.4745922	2.8211336	-1.9024282
1176195253459259	-2.5972736	3.8610897	-2.7753196
1176195261760040	-2.5700889	3.8356104	-2.7077947
1176195270060821	-2.803904	4.4381294	-2.705799
1176195278361602	-2.7873096	4.129178	-0.2138344
1176195286662384	-2.9007947	3.5919952	0.832631
1176195294963165	-2.5129383	3.2356758	0.9770696
1176195303263946	-1.6861277	3.1251698	0.47181618
1176195311564727	-1.6554223	3.0949259	0.61353207
1176195319865509	-0.7145455	3.1475306	-0.18557692
1176195328166290	-0.51946115	3.5095196	-1.2747453
1176195336467071	-0.9889879	3.8164282	-0.23924208
1176195344767852	-0.8240844	3.727416	0.80913603
1176195353068634	-0.30523932	3.5597038	1.62573
1176195361369415	-0.21720684	3.5421648	1.8480432
1176195369670196	0.041207194	3.6449928	2.403621
1176195377970977	-0.46540636	4.0870676	2.443235
1176195386271759	0.35257387	3.9171314	2.3361568
1176195394572540	2.083385	3.4198046	2.0327883
1176195402873321	5.3145304	2.7190008	1.5919476
1176195411174102	5.2830977	2.737197	1.7613361
1176195419474884	9.131839	2.0465746	0.91721606
1176195427775665	5.889776	1.8523006	-2.4061575
1176195436076446	1.4867435	2.0725842	-2.0455947
1176195444377227	-0.5480219	1.6511164	-1.1800742
1176195452678009	-0.84944546	0.958868	-0.45161772
1176195460978790	-0.7852297	0.98358345	-0.30853343
1176195469279571	-0.8399745	0.5063782	0.5126214
1176195477580352	-2.523737	-0.25227928	5.5727177
1176195485881134	-2.958903	-1.0472527	6.397552
1176195494181915	-2.7814007	-1.9172192	6.4713454
1176195502482696	-2.6985965	-1.8941708	6.541254
1176195510783477	-2.211069	-3.2692652	5.8335047
1176195519084259	-1.6479814	-3.666607	5.2819505
1176195527385040	-1.6116309	-3.6171255	5.4032044
1176195535685821	-0.36228773	-4.829049	3.6862948
1176195543986602	-0.36105415	-4.76457	3.8284457
1176195552287384	-0.014130563	-5.29154	3.7422037
1176195560588165	0.43040988	-5.8075695	4.068262
1176195568888946	0.73605853	-6.341091	4.2368813
1176195577189727	1.00143	-6.95963	4.115389
1176195585490509	1.1735668	-7.343479	3.4605367
1176195593791290	1.241286	-7.367056	2.4464235
1176195602092071	0.9928997	-7.1260376	1.2233486
1176195610392852	0.506397	-6.7934914	0.054583073
1176195618693634	0.026697874	-6.530224	-0.7706528
1176195626994415	-0.10452175	-6.415449	-0.8997679
1176195635295196	0.2700622	-6.638809	0.31984997
1176195643595977	0.2611279	-6.6346884	0.29955626
1176195651896759	0.38532096	-6.760997	0.44423246
1176195660197540	0.52670383	-6.87232	0.11041403
1176195668498321	0.73533785	-6.8697214	-0.6592827
1176195676799102	1.1907392	-5.7211885	-2.4360092
1176195685099884	1.1885238	-5.7762623	-2.5741348
1176195693400665	0.94427186	-4.347289	-2.4618635
1176195701701446	0.11582017	-1.9964561	-1.5611458
1176195710002227	-1.3281181	1.9663486	0.13177061
1176195718303009	-3.0662894	8.424968	2.207847
1176195726603790	-4.303493	18.116655	2.3992884
1176195734904571	-3.7066333	26.653572	1.5361617
1176195743205352	-2.8451388	27.735699	-0.17752719
1176195751506134	-2.0251281	20.977222	-3.133949
1176195759806915	-0.97243434	10.379193	-7.0213394
1176195768107696	-0.9812352	10.37232	-6.9454536
1176195776408477	1.0787446	-3.6815329	-13.381357
1176195784709259	0.4216436	-6.067153	-11.339066
1176195793010040	-0.10063225	-7.193122	-8.183834
1176195801310821	-0.75741845	-7.054179	-4.986928
1176195809611602	-1.3012516	-5.405938	-2.3163881
1176195817912384	-1.0416596	-2.0577345	-0.35276556
1176195826213165	0.74491835	2.5056667	1.0719616
1176195834513946	2.782107	5.8351755	3.4021282
1176195842814727	3.4777966	7.210108	7.121191
1176195851115509	3.4279385	7.198162	7.106517
1176195859416290	4.7249184	3.8183212	9.949556
1176195867717071	4.308963	0.9683342	7.7781057
1176195876017852	3.201373	-0.9062271	5.420785
1176195884318634	1.5997086	-1.9659729	3.6762097
1176195892619415	0.5292547	-2.6780672	2.0892472
1176195900920196	-0.2366786	-3.1763868	0.51938415
1176195909220977	-0.9869983	-3.3792772	-0.7984276
1176195917521759	-0.8874118	-3.3870392	-0.82020307
1176195925822540	-3.3199286	-2.5057306	-1.5317078
1176195934123321	-3.8671572	-2.2160072	-1.925833
1176195942424102	-3.79257	-2.305873	-1.2497997
1176195950724884	-3.7857723	-2.3209972	-1.3041966
1176195959025665	-2.6197376	-2.1775017	3.1002188
1176195967326446	-2.6621506	-2.2033453	2.9970393
1176195975627227	-1.1651309	-0.1997137	7.435777
1176195983928009	-1.122925	0.5892029	8.6034565
1176195992228790	-1.1083252	0.57124233	8.971563
1176196000529571	-1.1418447	0.5100565	8.690768
